[
  {
    "codelist_name": "Accountable Party",
    "cdisc_submission_value": "COURIER",
    "cdisc_synonyms": null
  },
  {
    "codelist_name": "Accountable Party",
    "cdisc_submission_value": "INVESTIGATOR SITE",
    "cdisc_synonyms": null
  },
  {
    "codelist_name": "Accountable Party",
    "cdisc_submission_value": "LABORATORY",
    "cdisc_synonyms": null
  },
  {
    "codelist_name": "Accountable Party",
    "cdisc_submission_value": "STORAGE FACILITY",
    "cdisc_synonyms": null
  },
  {
    "codelist_name": "Accountable Party",
    "cdisc_submission_value": "SUBJECT",
    "cdisc_synonyms": null
  },
  {
    "codelist_name": "Action Taken with Study Treatment",
    "cdisc_submission_value": "DOSE INCREASED",
    "cdisc_synonyms": null
  },
  {
    "codelist_name": "Action Taken with Study Treatment",
    "cdisc_submission_value": "DOSE NOT CHANGED",
    "cdisc_synonyms": null
  },
  {
    "codelist_name": "Action Taken with Study Treatment",
    "cdisc_submission_value": "DOSE RATE REDUCED",
    "cdisc_synonyms": null
  },
  {
    "codelist_name": "Action Taken with Study Treatment",
    "cdisc_submission_value": "DOSE REDUCED",
    "cdisc_synonyms": null
  },
  {
    "codelist_name": "Action Taken with Study Treatment",
    "cdisc_submission_value": "DRUG INTERRUPTED",
    "cdisc_synonyms": null
  },
  {
    "codelist_name": "Action Taken with Study Treatment",
    "cdisc_submission_value": "DRUG WITHDRAWN",
    "cdisc_synonyms": null
  },
  {
    "codelist_name": "Action Taken with Tobacco Product",
    "cdisc_submission_value": "PRODUCT INCREASED",
    "cdisc_synonyms": null
  },
  {
    "codelist_name": "Action Taken with Tobacco Product",
    "cdisc_submission_value": "PRODUCT INTERRUPTED",
    "cdisc_synonyms": null
  },
  {
    "codelist_name": "Action Taken with Tobacco Product",
    "cdisc_submission_value": "PRODUCT NOT CHANGED",
    "cdisc_synonyms": null
  },
  {
    "codelist_name": "Action Taken with Tobacco Product",
    "cdisc_submission_value": "PRODUCT STOPPED",
    "cdisc_synonyms": null
  },
  {
    "codelist_name": "Acute Coronary Syndrome Presentation Category",
    "cdisc_submission_value": "STABLE ANGINA",
    "cdisc_synonyms": null
  },
  {
    "codelist_name": "Acute Coronary Syndrome Presentation Category",
    "cdisc_submission_value": "UNSTABLE ANGINA",
    "cdisc_synonyms": null
  },
  {
    "codelist_name": "Administration Technique Response",
    "cdisc_submission_value": "HEAF",
    "cdisc_synonyms": null
  },
  {
    "codelist_name": "Administration Technique Response",
    "cdisc_submission_value": "MANTOUX",
    "cdisc_synonyms": null
  },
  {
    "codelist_name": "Administration Technique Response",
    "cdisc_submission_value": "TINE",
    "cdisc_synonyms": null
  },
  {
    "codelist_name": "Age Unit",
    "cdisc_submission_value": "DAYS",
    "cdisc_synonyms": null
  },
  {
    "codelist_name": "Anatomical Location",
    "cdisc_submission_value": "5TH LUMBAR SPINOUS PROCESS",
    "cdisc_synonyms": null
  },
  {
    "codelist_name": "Anatomical Location",
    "cdisc_submission_value": "ABDOMINAL AORTA",
    "cdisc_synonyms": null
  },
  {
    "codelist_name": "Anatomical Location",
    "cdisc_submission_value": "ABDOMINAL LYMPH NODE",
    "cdisc_synonyms": null
  },
  {
    "codelist_name": "Anatomical Location",
    "cdisc_submission_value": "ABDOMINAL QUADRANT, LEFT LOWER",
    "cdisc_synonyms": null
  },
  {
    "codelist_name": "Anatomical Location",
    "cdisc_submission_value": "ABDOMINAL QUADRANT, LEFT UPPER",
    "cdisc_synonyms": null
  },
  {
    "codelist_name": "Anatomical Location",
    "cdisc_submission_value": "ABDOMINAL QUADRANT, RIGHT LOWER",
    "cdisc_synonyms": null
  },
  {
    "codelist_name": "Anatomical Location",
    "cdisc_submission_value": "ABDOMINAL QUADRANT, RIGHT UPPER",
    "cdisc_synonyms": null
  },
  {
    "codelist_name": "Anatomical Location",
    "cdisc_submission_value": "ABDOMINAL REGION",
    "cdisc_synonyms": null
  },
  {
    "codelist_name": "Anatomical Location",
    "cdisc_submission_value": "ABDOMINAL WALL SOFT TISSUE",
    "cdisc_synonyms": null
  },
  {
    "codelist_name": "Anatomical Location",
    "cdisc_submission_value": "ABDOMINAL WALL",
    "cdisc_synonyms": null
  },
  {
    "codelist_name": "Anatomical Location",
    "cdisc_submission_value": "ABDUCENS NERVE",
    "cdisc_synonyms": null
  },
  {
    "codelist_name": "Anatomical Location",
    "cdisc_submission_value": "ABDUCTOR DIGITI MINIMI MUSCLE OF THE HAND",
    "cdisc_synonyms": null
  },
  {
    "codelist_name": "Anatomical Location",
    "cdisc_submission_value": "ABDUCTOR HALLUCIS MUSCLE",
    "cdisc_synonyms": null
  },
  {
    "codelist_name": "Anatomical Location",
    "cdisc_submission_value": "ABDUCTOR POLLICIS BREVIS MUSCLE",
    "cdisc_synonyms": null
  },
  {
    "codelist_name": "Anatomical Location",
    "cdisc_submission_value": "ABDUCTOR POLLICIS LONGUS MUSCLE",
    "cdisc_synonyms": null
  },
  {
    "codelist_name": "Anatomical Location",
    "cdisc_submission_value": "ACCESSORY RENAL ARTERY",
    "cdisc_synonyms": null
  },
  {
    "codelist_name": "Anatomical Location",
    "cdisc_submission_value": "ACHILLES TENDON",
    "cdisc_synonyms": null
  },
  {
    "codelist_name": "Anatomical Location",
    "cdisc_submission_value": "ADDUCTOR BREVIS MUSCLE",
    "cdisc_synonyms": null
  },
  {
    "codelist_name": "Anatomical Location",
    "cdisc_submission_value": "ADDUCTOR HALLUCIS MUSCLE, OBLIQUE HEAD",
    "cdisc_synonyms": null
  },
  {
    "codelist_name": "Anatomical Location",
    "cdisc_submission_value": "ADDUCTOR HALLUCIS MUSCLE, TRANSVERSE HEAD",
    "cdisc_synonyms": null
  },
  {
    "codelist_name": "Anatomical Location",
    "cdisc_submission_value": "ADDUCTOR LONGUS MUSCLE",
    "cdisc_synonyms": null
  },
  {
    "codelist_name": "Anatomical Location",
    "cdisc_submission_value": "ADDUCTOR MAGNUS MUSCLE",
    "cdisc_synonyms": null
  },
  {
    "codelist_name": "Anatomical Location",
    "cdisc_submission_value": "ADDUCTOR POLLICIS MUSCLE",
    "cdisc_synonyms": null
  },
  {
    "codelist_name": "Anatomical Location",
    "cdisc_submission_value": "ADRENAL GLAND",
    "cdisc_synonyms": null
  },
  {
    "codelist_name": "Anatomical Location",
    "cdisc_submission_value": "AMPULLA OF VATER",
    "cdisc_synonyms": null
  },
  {
    "codelist_name": "Anatomical Location",
    "cdisc_submission_value": "ANAL CANAL",
    "cdisc_synonyms": null
  },
  {
    "codelist_name": "Anatomical Location",
    "cdisc_submission_value": "ANAL REGION",
    "cdisc_synonyms": null
  },
  {
    "codelist_name": "Anatomical Location",
    "cdisc_submission_value": "ANAL SPHINCTER",
    "cdisc_synonyms": null
  },
  {
    "codelist_name": "Anatomical Location",
    "cdisc_submission_value": "ANAL VERGE",
    "cdisc_synonyms": null
  },
  {
    "codelist_name": "Anatomical Location",
    "cdisc_submission_value": "ANCONEUS MUSCLE",
    "cdisc_synonyms": null
  },
  {
    "codelist_name": "Anatomical Location",
    "cdisc_submission_value": "ANGULAR GYRUS",
    "cdisc_synonyms": null
  },
  {
    "codelist_name": "Anatomical Location",
    "cdisc_submission_value": "ANKLE DORSIFLEXOR MUSCLES",
    "cdisc_synonyms": null
  },
  {
    "codelist_name": "Anatomical Location",
    "cdisc_submission_value": "ANKLE JOINT ANTERIOR EXTENSOR TENDONS",
    "cdisc_synonyms": null
  },
  {
    "codelist_name": "Anatomical Location",
    "cdisc_submission_value": "ANKLE JOINT ANTERIOR FLEXOR TENDONS",
    "cdisc_synonyms": null
  },
  {
    "codelist_name": "Anatomical Location",
    "cdisc_submission_value": "ANORECTUM",
    "cdisc_synonyms": null
  },
  {
    "codelist_name": "Anatomical Location",
    "cdisc_submission_value": "ANTERIOR CINGULATE CORTEX",
    "cdisc_synonyms": null
  },
  {
    "codelist_name": "Anatomical Location",
    "cdisc_submission_value": "ANTERIOR CINGULATE GYRUS",
    "cdisc_synonyms": null
  },
  {
    "codelist_name": "Anatomical Location",
    "cdisc_submission_value": "ANTERIOR SUPERIOR ILIAC SPINE",
    "cdisc_synonyms": null
  },
  {
    "codelist_name": "Anatomical Location",
    "cdisc_submission_value": "ANTERIOR TIBIAL ARTERY",
    "cdisc_synonyms": null
  },
  {
    "codelist_name": "Anatomical Location",
    "cdisc_submission_value": "ANTERIOR TIBIAL VEIN",
    "cdisc_synonyms": null
  },
  {
    "codelist_name": "Anatomical Location",
    "cdisc_submission_value": "ANUS",
    "cdisc_synonyms": null
  },
  {
    "codelist_name": "Anatomical Location",
    "cdisc_submission_value": "AORTA",
    "cdisc_synonyms": null
  },
  {
    "codelist_name": "Anatomical Location",
    "cdisc_submission_value": "AORTIC BODY",
    "cdisc_synonyms": null
  },
  {
    "codelist_name": "Anatomical Location",
    "cdisc_submission_value": "AORTIC VALVE ANNULUS",
    "cdisc_synonyms": null
  },
  {
    "codelist_name": "Anatomical Location",
    "cdisc_submission_value": "AORTIC VALVE",
    "cdisc_synonyms": null
  },
  {
    "codelist_name": "Anatomical Location",
    "cdisc_submission_value": "AORTICOPULMONARY SEPTUM",
    "cdisc_synonyms": null
  },
  {
    "codelist_name": "Anatomical Location",
    "cdisc_submission_value": "AORTO-ILIAC PERIPHERAL ARTERY",
    "cdisc_synonyms": null
  },
  {
    "codelist_name": "Anatomical Location",
    "cdisc_submission_value": "AORTOCAVAL LYMPH NODE",
    "cdisc_synonyms": null
  },
  {
    "codelist_name": "Anatomical Location",
    "cdisc_submission_value": "AORTOPULMONARY WINDOW LYMPH NODE",
    "cdisc_synonyms": null
  },
  {
    "codelist_name": "Anatomical Location",
    "cdisc_submission_value": "APPENDICEAL TIP",
    "cdisc_synonyms": null
  },
  {
    "codelist_name": "Anatomical Location",
    "cdisc_submission_value": "APPENDICULAR SKELETON",
    "cdisc_synonyms": null
  },
  {
    "codelist_name": "Anatomical Location",
    "cdisc_submission_value": "APPENDIX",
    "cdisc_synonyms": null
  },
  {
    "codelist_name": "Anatomical Location",
    "cdisc_submission_value": "ASCENDING AORTA",
    "cdisc_synonyms": null
  },
  {
    "codelist_name": "Anatomical Location",
    "cdisc_submission_value": "ASCENDING AORTA, AORTIC ROOT",
    "cdisc_synonyms": null
  },
  {
    "codelist_name": "Anatomical Location",
    "cdisc_submission_value": "ASCENDING AORTA, SINOTUBULAR JUNCTION",
    "cdisc_synonyms": null
  },
  {
    "codelist_name": "Anatomical Location",
    "cdisc_submission_value": "ASCENDING AORTA, SINUS OF VALSALVA",
    "cdisc_synonyms": null
  },
  {
    "codelist_name": "Anatomical Location",
    "cdisc_submission_value": "ATRIOVENTRICULAR SEPTUM",
    "cdisc_synonyms": null
  },
  {
    "codelist_name": "Anatomical Location",
    "cdisc_submission_value": "ATRIOVENTRICULAR VALVE",
    "cdisc_synonyms": null
  },
  {
    "codelist_name": "Anatomical Location",
    "cdisc_submission_value": "AXIAL SKELETON",
    "cdisc_synonyms": null
  },
  {
    "codelist_name": "Anatomical Location",
    "cdisc_submission_value": "AXILLARY ARTERY",
    "cdisc_synonyms": null
  },
  {
    "codelist_name": "Anatomical Location",
    "cdisc_submission_value": "AXILLARY LYMPH NODE LEVEL I",
    "cdisc_synonyms": null
  },
  {
    "codelist_name": "Anatomical Location",
    "cdisc_submission_value": "AXILLARY LYMPH NODE LEVEL II",
    "cdisc_synonyms": null
  },
  {
    "codelist_name": "Anatomical Location",
    "cdisc_submission_value": "AXILLARY LYMPH NODE LEVEL III",
    "cdisc_synonyms": null
  },
  {
    "codelist_name": "Anatomical Location",
    "cdisc_submission_value": "AXILLARY LYMPH NODE",
    "cdisc_synonyms": null
  },
  {
    "codelist_name": "Anatomical Location",
    "cdisc_submission_value": "AXILLARY VEIN",
    "cdisc_synonyms": null
  },
  {
    "codelist_name": "Anatomical Location",
    "cdisc_submission_value": "AZYGOS VEIN",
    "cdisc_synonyms": null
  },
  {
    "codelist_name": "Anatomical Location",
    "cdisc_submission_value": "BASAL GANGLIA",
    "cdisc_synonyms": null
  },
  {
    "codelist_name": "Anatomical Location",
    "cdisc_submission_value": "BASE OF THE TONGUE",
    "cdisc_synonyms": null
  },
  {
    "codelist_name": "Anatomical Location",
    "cdisc_submission_value": "BASILAR ARTERY",
    "cdisc_synonyms": null
  },
  {
    "codelist_name": "Anatomical Location",
    "cdisc_submission_value": "BASIOCCIPITAL BONE",
    "cdisc_synonyms": null
  },
  {
    "codelist_name": "Anatomical Location",
    "cdisc_submission_value": "BASISPHENOID BONE",
    "cdisc_synonyms": null
  },
  {
    "codelist_name": "Anatomical Location",
    "cdisc_submission_value": "BICEPS BRACHII MUSCLE",
    "cdisc_synonyms": null
  },
  {
    "codelist_name": "Anatomical Location",
    "cdisc_submission_value": "BICEPS BRACHII TENDONS",
    "cdisc_synonyms": null
  },
  {
    "codelist_name": "Anatomical Location",
    "cdisc_submission_value": "BICEPS FEMORIS MUSCLE",
    "cdisc_synonyms": null
  },
  {
    "codelist_name": "Anatomical Location",
    "cdisc_submission_value": "BICEPS FEMORIS MUSCLE, LONG HEAD",
    "cdisc_synonyms": null
  },
  {
    "codelist_name": "Anatomical Location",
    "cdisc_submission_value": "BICEPS FEMORIS MUSCLE, SHORT HEAD",
    "cdisc_synonyms": null
  },
  {
    "codelist_name": "Anatomical Location",
    "cdisc_submission_value": "BILE DUCT",
    "cdisc_synonyms": null
  },
  {
    "codelist_name": "Anatomical Location",
    "cdisc_submission_value": "BLADDER WALL",
    "cdisc_synonyms": null
  },
  {
    "codelist_name": "Anatomical Location",
    "cdisc_submission_value": "BLADDER, APEX",
    "cdisc_synonyms": null
  },
  {
    "codelist_name": "Anatomical Location",
    "cdisc_submission_value": "BLADDER, BODY",
    "cdisc_synonyms": null
  },
  {
    "codelist_name": "Anatomical Location",
    "cdisc_submission_value": "BLOOD VESSEL",
    "cdisc_synonyms": null
  },
  {
    "codelist_name": "Anatomical Location",
    "cdisc_submission_value": "BONE MARROW",
    "cdisc_synonyms": null
  },
  {
    "codelist_name": "Anatomical Location",
    "cdisc_submission_value": "BONE",
    "cdisc_synonyms": null
  },
  {
    "codelist_name": "Anatomical Location",
    "cdisc_submission_value": "BRACHIAL ARTERY",
    "cdisc_synonyms": null
  },
  {
    "codelist_name": "Anatomical Location",
    "cdisc_submission_value": "BRACHIAL LYMPH NODE",
    "cdisc_synonyms": null
  },
  {
    "codelist_name": "Anatomical Location",
    "cdisc_submission_value": "BRACHIAL VEIN",
    "cdisc_synonyms": null
  },
  {
    "codelist_name": "Anatomical Location",
    "cdisc_submission_value": "BRACHIALIS MUSCLE",
    "cdisc_synonyms": null
  },
  {
    "codelist_name": "Anatomical Location",
    "cdisc_submission_value": "BRACHIORADIALIS MUSCLE",
    "cdisc_synonyms": null
  },
  {
    "codelist_name": "Anatomical Location",
    "cdisc_submission_value": "BRAIN VENTRICLE, LATERAL",
    "cdisc_synonyms": null
  },
  {
    "codelist_name": "Anatomical Location",
    "cdisc_submission_value": "BRAIN, EXTERNAL CAPSULE",
    "cdisc_synonyms": null
  },
  {
    "codelist_name": "Anatomical Location",
    "cdisc_submission_value": "BRAIN, FOURTH VENTRICLE",
    "cdisc_synonyms": null
  },
  {
    "codelist_name": "Anatomical Location",
    "cdisc_submission_value": "BRAIN, INTERNAL CAPSULE",
    "cdisc_synonyms": null
  },
  {
    "codelist_name": "Anatomical Location",
    "cdisc_submission_value": "BRAIN, PERIVENTRICULAR REGION",
    "cdisc_synonyms": null
  },
  {
    "codelist_name": "Anatomical Location",
    "cdisc_submission_value": "BRAIN, THIRD VENTRICLE",
    "cdisc_synonyms": null
  },
  {
    "codelist_name": "Anatomical Location",
    "cdisc_submission_value": "BROAD LIGAMENT",
    "cdisc_synonyms": null
  },
  {
    "codelist_name": "Anatomical Location",
    "cdisc_submission_value": "BRONCHIAL STUMP",
    "cdisc_synonyms": null
  },
  {
    "codelist_name": "Anatomical Location",
    "cdisc_submission_value": "BRONCHIOLE",
    "cdisc_synonyms": null
  },
  {
    "codelist_name": "Anatomical Location",
    "cdisc_submission_value": "BUCCAL MUCOSA",
    "cdisc_synonyms": null
  },
  {
    "codelist_name": "Anatomical Location",
    "cdisc_submission_value": "BULBAR CONJUNCTIVA",
    "cdisc_synonyms": null
  },
  {
    "codelist_name": "Anatomical Location",
    "cdisc_submission_value": "CALCANEAL TUBEROSITY",
    "cdisc_synonyms": null
  },
  {
    "codelist_name": "Anatomical Location",
    "cdisc_submission_value": "CALCARINE SULCUS",
    "cdisc_synonyms": null
  },
  {
    "codelist_name": "Anatomical Location",
    "cdisc_submission_value": "CALF MUSCULAR VEIN",
    "cdisc_synonyms": null
  },
  {
    "codelist_name": "Anatomical Location",
    "cdisc_submission_value": "CALF",
    "cdisc_synonyms": null
  },
  {
    "codelist_name": "Anatomical Location",
    "cdisc_submission_value": "CAPITATE-HAMATE JOINT",
    "cdisc_synonyms": null
  },
  {
    "codelist_name": "Anatomical Location",
    "cdisc_submission_value": "CAPITATE-LUNATE JOINT",
    "cdisc_synonyms": null
  },
  {
    "codelist_name": "Anatomical Location",
    "cdisc_submission_value": "CARDIAC VALVE",
    "cdisc_synonyms": null
  },
  {
    "codelist_name": "Anatomical Location",
    "cdisc_submission_value": "CARDIAC WALL",
    "cdisc_synonyms": null
  },
  {
    "codelist_name": "Anatomical Location",
    "cdisc_submission_value": "CAROTID BODY",
    "cdisc_synonyms": null
  },
  {
    "codelist_name": "Anatomical Location",
    "cdisc_submission_value": "CARPAL BONE",
    "cdisc_synonyms": null
  },
  {
    "codelist_name": "Anatomical Location",
    "cdisc_submission_value": "CARPOMETACARPAL JOINT",
    "cdisc_synonyms": null
  },
  {
    "codelist_name": "Anatomical Location",
    "cdisc_submission_value": "CARTILAGE",
    "cdisc_synonyms": null
  },
  {
    "codelist_name": "Anatomical Location",
    "cdisc_submission_value": "CAUDAL VERTEBRA",
    "cdisc_synonyms": null
  },
  {
    "codelist_name": "Anatomical Location",
    "cdisc_submission_value": "CAUDATE NUCLEUS",
    "cdisc_synonyms": null
  },
  {
    "codelist_name": "Anatomical Location",
    "cdisc_submission_value": "CECUM",
    "cdisc_synonyms": null
  },
  {
    "codelist_name": "Anatomical Location",
    "cdisc_submission_value": "CENTRAL NERVOUS SYSTEM",
    "cdisc_synonyms": null
  },
  {
    "codelist_name": "Anatomical Location",
    "cdisc_submission_value": "CEREBELLAR LOBE",
    "cdisc_synonyms": null
  },
  {
    "codelist_name": "Anatomical Location",
    "cdisc_submission_value": "CEREBELLAR PEDUNCLE",
    "cdisc_synonyms": null
  },
  {
    "codelist_name": "Anatomical Location",
    "cdisc_submission_value": "CEREBELLAR VERMIS",
    "cdisc_synonyms": null
  },
  {
    "codelist_name": "Anatomical Location",
    "cdisc_submission_value": "CEREBELLUM",
    "cdisc_synonyms": null
  },
  {
    "codelist_name": "Anatomical Location",
    "cdisc_submission_value": "CEREBRAL ARTERY",
    "cdisc_synonyms": null
  },
  {
    "codelist_name": "Anatomical Location",
    "cdisc_submission_value": "CEREBRAL HEMISPHERE, LEFT",
    "cdisc_synonyms": null
  },
  {
    "codelist_name": "Anatomical Location",
    "cdisc_submission_value": "CEREBRAL HEMISPHERE, RIGHT",
    "cdisc_synonyms": null
  },
  {
    "codelist_name": "Anatomical Location",
    "cdisc_submission_value": "CEREBRAL PEDUNCLE",
    "cdisc_synonyms": null
  },
  {
    "codelist_name": "Anatomical Location",
    "cdisc_submission_value": "CEREBRAL VEIN",
    "cdisc_synonyms": null
  },
  {
    "codelist_name": "Anatomical Location",
    "cdisc_submission_value": "CEREBRUM",
    "cdisc_synonyms": null
  },
  {
    "codelist_name": "Anatomical Location",
    "cdisc_submission_value": "CERVICAL LYMPH NODE LEVEL II",
    "cdisc_synonyms": null
  },
  {
    "codelist_name": "Anatomical Location",
    "cdisc_submission_value": "CERVICAL LYMPH NODE LEVEL III",
    "cdisc_synonyms": null
  },
  {
    "codelist_name": "Anatomical Location",
    "cdisc_submission_value": "CERVICAL LYMPH NODE LEVEL IV",
    "cdisc_synonyms": null
  },
  {
    "codelist_name": "Anatomical Location",
    "cdisc_submission_value": "CERVICAL LYMPH NODE LEVEL V",
    "cdisc_synonyms": null
  },
  {
    "codelist_name": "Anatomical Location",
    "cdisc_submission_value": "CERVICAL LYMPH NODE",
    "cdisc_synonyms": null
  },
  {
    "codelist_name": "Anatomical Location",
    "cdisc_submission_value": "CERVICAL SPINE",
    "cdisc_synonyms": null
  },
  {
    "codelist_name": "Anatomical Location",
    "cdisc_submission_value": "CERVICAL VERTEBRA",
    "cdisc_synonyms": null
  },
  {
    "codelist_name": "Anatomical Location",
    "cdisc_submission_value": "CERVICOVAGINAL REGION",
    "cdisc_synonyms": null
  },
  {
    "codelist_name": "Anatomical Location",
    "cdisc_submission_value": "CHEEK",
    "cdisc_synonyms": null
  },
  {
    "codelist_name": "Anatomical Location",
    "cdisc_submission_value": "CHIN",
    "cdisc_synonyms": null
  },
  {
    "codelist_name": "Anatomical Location",
    "cdisc_submission_value": "CHOROID PLEXUS",
    "cdisc_synonyms": null
  },
  {
    "codelist_name": "Anatomical Location",
    "cdisc_submission_value": "CHOROID",
    "cdisc_synonyms": null
  },
  {
    "codelist_name": "Anatomical Location",
    "cdisc_submission_value": "CILIARY BODY",
    "cdisc_synonyms": null
  },
  {
    "codelist_name": "Anatomical Location",
    "cdisc_submission_value": "CINGULATE CORTEX",
    "cdisc_synonyms": null
  },
  {
    "codelist_name": "Anatomical Location",
    "cdisc_submission_value": "CIRCUMFLEX, OBTUSE MARGINALS, LEFT POSTEROLATERAL AND LEFT POSTERIOR DESCENDING ARTERY BRANCHES",
    "cdisc_synonyms": null
  },
  {
    "codelist_name": "Anatomical Location",
    "cdisc_submission_value": "CLAVICLE",
    "cdisc_synonyms": null
  },
  {
    "codelist_name": "Anatomical Location",
    "cdisc_submission_value": "CLAW",
    "cdisc_synonyms": null
  },
  {
    "codelist_name": "Anatomical Location",
    "cdisc_submission_value": "CLITORIS",
    "cdisc_synonyms": null
  },
  {
    "codelist_name": "Anatomical Location",
    "cdisc_submission_value": "CLIVUS",
    "cdisc_synonyms": null
  },
  {
    "codelist_name": "Anatomical Location",
    "cdisc_submission_value": "COLON LYMPH NODE",
    "cdisc_synonyms": null
  },
  {
    "codelist_name": "Anatomical Location",
    "cdisc_submission_value": "COLON WALL",
    "cdisc_synonyms": null
  },
  {
    "codelist_name": "Anatomical Location",
    "cdisc_submission_value": "COLON",
    "cdisc_synonyms": null
  },
  {
    "codelist_name": "Anatomical Location",
    "cdisc_submission_value": "COLON, RECTOSIGMOID",
    "cdisc_synonyms": null
  },
  {
    "codelist_name": "Anatomical Location",
    "cdisc_submission_value": "COLONIC MUCOSA",
    "cdisc_synonyms": null
  },
  {
    "codelist_name": "Anatomical Location",
    "cdisc_submission_value": "COMMON FEMORAL ARTERY",
    "cdisc_synonyms": null
  },
  {
    "codelist_name": "Anatomical Location",
    "cdisc_submission_value": "COMMON FEMORAL VEIN",
    "cdisc_synonyms": null
  },
  {
    "codelist_name": "Anatomical Location",
    "cdisc_submission_value": "COMMON ILIAC ARTERY",
    "cdisc_synonyms": null
  },
  {
    "codelist_name": "Anatomical Location",
    "cdisc_submission_value": "COMMON ILIAC LYMPH NODE",
    "cdisc_synonyms": null
  },
  {
    "codelist_name": "Anatomical Location",
    "cdisc_submission_value": "COMMON PALMAR DIGITAL ARTERY",
    "cdisc_synonyms": null
  },
  {
    "codelist_name": "Anatomical Location",
    "cdisc_submission_value": "CONJUNCTIVA",
    "cdisc_synonyms": null
  },
  {
    "codelist_name": "Anatomical Location",
    "cdisc_submission_value": "CORNEA",
    "cdisc_synonyms": null
  },
  {
    "codelist_name": "Anatomical Location",
    "cdisc_submission_value": "CORNEAL ENDOTHELIUM",
    "cdisc_synonyms": null
  },
  {
    "codelist_name": "Anatomical Location",
    "cdisc_submission_value": "CORNEAL EPITHELIUM",
    "cdisc_synonyms": null
  },
  {
    "codelist_name": "Anatomical Location",
    "cdisc_submission_value": "CORNEAL STROMA",
    "cdisc_synonyms": null
  },
  {
    "codelist_name": "Anatomical Location",
    "cdisc_submission_value": "CORONARY ARTERY",
    "cdisc_synonyms": null
  },
  {
    "codelist_name": "Anatomical Location",
    "cdisc_submission_value": "CORONARY SINUS",
    "cdisc_synonyms": null
  },
  {
    "codelist_name": "Anatomical Location",
    "cdisc_submission_value": "CORONARY VEIN",
    "cdisc_synonyms": null
  },
  {
    "codelist_name": "Anatomical Location",
    "cdisc_submission_value": "CORPUS CALLOSUM",
    "cdisc_synonyms": null
  },
  {
    "codelist_name": "Anatomical Location",
    "cdisc_submission_value": "CORPUS CALLOSUM, BODY",
    "cdisc_synonyms": null
  },
  {
    "codelist_name": "Anatomical Location",
    "cdisc_submission_value": "CORPUS CALLOSUM, GENU",
    "cdisc_synonyms": null
  },
  {
    "codelist_name": "Anatomical Location",
    "cdisc_submission_value": "CORPUS CALLOSUM, SPLENIUM",
    "cdisc_synonyms": null
  },
  {
    "codelist_name": "Anatomical Location",
    "cdisc_submission_value": "CORPUS STRIATUM",
    "cdisc_synonyms": null
  },
  {
    "codelist_name": "Anatomical Location",
    "cdisc_submission_value": "CORRUGATOR SUPERCILII MUSCLE",
    "cdisc_synonyms": null
  },
  {
    "codelist_name": "Anatomical Location",
    "cdisc_submission_value": "COSTOCHONDRAL JOINT 1",
    "cdisc_synonyms": null
  },
  {
    "codelist_name": "Anatomical Location",
    "cdisc_submission_value": "COSTOCHONDRAL JOINT 7",
    "cdisc_synonyms": null
  },
  {
    "codelist_name": "Anatomical Location",
    "cdisc_submission_value": "CRANIAL NERVE",
    "cdisc_synonyms": null
  },
  {
    "codelist_name": "Anatomical Location",
    "cdisc_submission_value": "DELTOID MUSCLE",
    "cdisc_synonyms": null
  },
  {
    "codelist_name": "Anatomical Location",
    "cdisc_submission_value": "DENTAL ARCH",
    "cdisc_synonyms": null
  },
  {
    "codelist_name": "Anatomical Location",
    "cdisc_submission_value": "DERMAL PAPILLAE OF THE FACE",
    "cdisc_synonyms": null
  },
  {
    "codelist_name": "Anatomical Location",
    "cdisc_submission_value": "DESCENDING AORTA",
    "cdisc_synonyms": null
  },
  {
    "codelist_name": "Anatomical Location",
    "cdisc_submission_value": "DIAPHRAGM",
    "cdisc_synonyms": null
  },
  {
    "codelist_name": "Anatomical Location",
    "cdisc_submission_value": "DIAPHRAGMATIC LYMPH NODE",
    "cdisc_synonyms": null
  },
  {
    "codelist_name": "Anatomical Location",
    "cdisc_submission_value": "DIGIT",
    "cdisc_synonyms": null
  },
  {
    "codelist_name": "Anatomical Location",
    "cdisc_submission_value": "DIGITAL ARTERY",
    "cdisc_synonyms": null
  },
  {
    "codelist_name": "Anatomical Location",
    "cdisc_submission_value": "DISTAL COMMON BILE DUCT",
    "cdisc_synonyms": null
  },
  {
    "codelist_name": "Anatomical Location",
    "cdisc_submission_value": "DISTAL EXTRAHEPATIC BILE DUCT REGION",
    "cdisc_synonyms": null
  },
  {
    "codelist_name": "Anatomical Location",
    "cdisc_submission_value": "DISTAL FEMUR R1",
    "cdisc_synonyms": null
  },
  {
    "codelist_name": "Anatomical Location",
    "cdisc_submission_value": "DISTAL PHALANX 2 OF THE HAND",
    "cdisc_synonyms": null
  },
  {
    "codelist_name": "Anatomical Location",
    "cdisc_submission_value": "DISTAL PHALANX 3 OF THE HAND",
    "cdisc_synonyms": null
  },
  {
    "codelist_name": "Anatomical Location",
    "cdisc_submission_value": "DISTAL PHALANX 4 OF THE HAND",
    "cdisc_synonyms": null
  },
  {
    "codelist_name": "Anatomical Location",
    "cdisc_submission_value": "DISTAL PHALANX 5 OF THE HAND",
    "cdisc_synonyms": null
  },
  {
    "codelist_name": "Anatomical Location",
    "cdisc_submission_value": "DISTAL RADIOULNAR JOINT",
    "cdisc_synonyms": null
  },
  {
    "codelist_name": "Anatomical Location",
    "cdisc_submission_value": "DISTANT LYMPH NODE",
    "cdisc_synonyms": null
  },
  {
    "codelist_name": "Anatomical Location",
    "cdisc_submission_value": "DORSAL MOTOR NUCLEUS",
    "cdisc_synonyms": null
  },
  {
    "codelist_name": "Anatomical Location",
    "cdisc_submission_value": "DUCTUS ARTERIOSUS",
    "cdisc_synonyms": null
  },
  {
    "codelist_name": "Anatomical Location",
    "cdisc_submission_value": "DUODENUM",
    "cdisc_synonyms": null
  },
  {
    "codelist_name": "Anatomical Location",
    "cdisc_submission_value": "DURA MATER",
    "cdisc_synonyms": null
  },
  {
    "codelist_name": "Anatomical Location",
    "cdisc_submission_value": "DURAL VENOUS SINUS",
    "cdisc_synonyms": null
  },
  {
    "codelist_name": "Anatomical Location",
    "cdisc_submission_value": "EAR",
    "cdisc_synonyms": null
  },
  {
    "codelist_name": "Anatomical Location",
    "cdisc_submission_value": "EARLOBE",
    "cdisc_synonyms": null
  },
  {
    "codelist_name": "Anatomical Location",
    "cdisc_submission_value": "ELBOW EXTENSOR MUSCLES",
    "cdisc_synonyms": null
  },
  {
    "codelist_name": "Anatomical Location",
    "cdisc_submission_value": "ELBOW FLEXOR MUSCLES",
    "cdisc_synonyms": null
  },
  {
    "codelist_name": "Anatomical Location",
    "cdisc_submission_value": "ELBOW JOINT TENDONS",
    "cdisc_synonyms": null
  },
  {
    "codelist_name": "Anatomical Location",
    "cdisc_submission_value": "ENDOCARDIUM",
    "cdisc_synonyms": null
  },
  {
    "codelist_name": "Anatomical Location",
    "cdisc_submission_value": "ENDOCERVIX",
    "cdisc_synonyms": null
  },
  {
    "codelist_name": "Anatomical Location",
    "cdisc_submission_value": "ENDOMETRIUM",
    "cdisc_synonyms": null
  },
  {
    "codelist_name": "Anatomical Location",
    "cdisc_submission_value": "ENTORHINAL CORTEX",
    "cdisc_synonyms": null
  },
  {
    "codelist_name": "Anatomical Location",
    "cdisc_submission_value": "EPICARDIUM",
    "cdisc_synonyms": null
  },
  {
    "codelist_name": "Anatomical Location",
    "cdisc_submission_value": "EPIDIDYMIS",
    "cdisc_synonyms": null
  },
  {
    "codelist_name": "Anatomical Location",
    "cdisc_submission_value": "EPIDURAL SPACE",
    "cdisc_synonyms": null
  },
  {
    "codelist_name": "Anatomical Location",
    "cdisc_submission_value": "EPIGASTRIC LYMPH NODE",
    "cdisc_synonyms": null
  },
  {
    "codelist_name": "Anatomical Location",
    "cdisc_submission_value": "EPIGASTRIC REGION",
    "cdisc_synonyms": null
  },
  {
    "codelist_name": "Anatomical Location",
    "cdisc_submission_value": "EPITROCHLEAR LYMPH NODE",
    "cdisc_synonyms": null
  },
  {
    "codelist_name": "Anatomical Location",
    "cdisc_submission_value": "ESOPHAGEAL LYMPH NODE",
    "cdisc_synonyms": null
  },
  {
    "codelist_name": "Anatomical Location",
    "cdisc_submission_value": "ESOPHAGEAL MUCOSA",
    "cdisc_synonyms": null
  },
  {
    "codelist_name": "Anatomical Location",
    "cdisc_submission_value": "ESOPHAGUS",
    "cdisc_synonyms": null
  },
  {
    "codelist_name": "Anatomical Location",
    "cdisc_submission_value": "ESOPHAGUS, THORACIC LOWER",
    "cdisc_synonyms": null
  },
  {
    "codelist_name": "Anatomical Location",
    "cdisc_submission_value": "ESOPHAGUS, THORACIC UPPER",
    "cdisc_synonyms": null
  },
  {
    "codelist_name": "Anatomical Location",
    "cdisc_submission_value": "EXOCCIPITAL BONE",
    "cdisc_synonyms": null
  },
  {
    "codelist_name": "Anatomical Location",
    "cdisc_submission_value": "EXTENSOR CARPI RADIALIS MUSCLES",
    "cdisc_synonyms": null
  },
  {
    "codelist_name": "Anatomical Location",
    "cdisc_submission_value": "EXTENSOR CARPI ULNARIS MUSCLE",
    "cdisc_synonyms": null
  },
  {
    "codelist_name": "Anatomical Location",
    "cdisc_submission_value": "EXTENSOR DIGITI MINIMI MUSCLE",
    "cdisc_synonyms": null
  },
  {
    "codelist_name": "Anatomical Location",
    "cdisc_submission_value": "EXTENSOR DIGITORUM BREVIS MUSCLE",
    "cdisc_synonyms": null
  },
  {
    "codelist_name": "Anatomical Location",
    "cdisc_submission_value": "EXTENSOR DIGITORUM MUSCLE",
    "cdisc_synonyms": null
  },
  {
    "codelist_name": "Anatomical Location",
    "cdisc_submission_value": "EXTENSOR HALLUCIS BREVIS MUSCLE",
    "cdisc_synonyms": null
  },
  {
    "codelist_name": "Anatomical Location",
    "cdisc_submission_value": "EXTENSOR HALLUCIS LONGUS MUSCLE",
    "cdisc_synonyms": null
  },
  {
    "codelist_name": "Anatomical Location",
    "cdisc_submission_value": "EXTENSOR INDICIS PROPRIUS MUSCLE",
    "cdisc_synonyms": null
  },
  {
    "codelist_name": "Anatomical Location",
    "cdisc_submission_value": "EXTENSOR POLLICIS BREVIS MUSCLE",
    "cdisc_synonyms": null
  },
  {
    "codelist_name": "Anatomical Location",
    "cdisc_submission_value": "EXTENSOR POLLICIS LONGUS MUSCLE",
    "cdisc_synonyms": null
  },
  {
    "codelist_name": "Anatomical Location",
    "cdisc_submission_value": "EXTERNAL ILIAC ARTERY",
    "cdisc_synonyms": null
  },
  {
    "codelist_name": "Anatomical Location",
    "cdisc_submission_value": "EXTERNAL ILIAC LYMPH NODE",
    "cdisc_synonyms": null
  },
  {
    "codelist_name": "Anatomical Location",
    "cdisc_submission_value": "EXTRAABDOMINAL LYMPH NODE",
    "cdisc_synonyms": null
  },
  {
    "codelist_name": "Anatomical Location",
    "cdisc_submission_value": "EXTRAHEPATIC BILE DUCT",
    "cdisc_synonyms": null
  },
  {
    "codelist_name": "Anatomical Location",
    "cdisc_submission_value": "EXTRAHEPATIC PERIHILAR BILE DUCT REGION",
    "cdisc_synonyms": null
  },
  {
    "codelist_name": "Anatomical Location",
    "cdisc_submission_value": "EXTRANODAL REGION",
    "cdisc_synonyms": null
  },
  {
    "codelist_name": "Anatomical Location",
    "cdisc_submission_value": "EYE BULGE",
    "cdisc_synonyms": null
  },
  {
    "codelist_name": "Anatomical Location",
    "cdisc_submission_value": "EYE, ANTERIOR CHAMBER",
    "cdisc_synonyms": null
  },
  {
    "codelist_name": "Anatomical Location",
    "cdisc_submission_value": "EYE, ANTERIOR SEGMENT",
    "cdisc_synonyms": null
  },
  {
    "codelist_name": "Anatomical Location",
    "cdisc_submission_value": "EYEBROW",
    "cdisc_synonyms": null
  },
  {
    "codelist_name": "Anatomical Location",
    "cdisc_submission_value": "EYELASH",
    "cdisc_synonyms": null
  },
  {
    "codelist_name": "Anatomical Location",
    "cdisc_submission_value": "FACE",
    "cdisc_synonyms": null
  },
  {
    "codelist_name": "Anatomical Location",
    "cdisc_submission_value": "FALCIFORM LIGAMENT",
    "cdisc_synonyms": null
  },
  {
    "codelist_name": "Anatomical Location",
    "cdisc_submission_value": "FASCIA",
    "cdisc_synonyms": null
  },
  {
    "codelist_name": "Anatomical Location",
    "cdisc_submission_value": "FAT PAD",
    "cdisc_synonyms": null
  },
  {
    "codelist_name": "Anatomical Location",
    "cdisc_submission_value": "FEMALE REPRODUCTIVE SYSTEM",
    "cdisc_synonyms": null
  },
  {
    "codelist_name": "Anatomical Location",
    "cdisc_submission_value": "FEMORAL ARTERY",
    "cdisc_synonyms": null
  },
  {
    "codelist_name": "Anatomical Location",
    "cdisc_submission_value": "FEMORAL CONDYLE",
    "cdisc_synonyms": null
  },
  {
    "codelist_name": "Anatomical Location",
    "cdisc_submission_value": "FEMORAL LYMPH NODE",
    "cdisc_synonyms": null
  },
  {
    "codelist_name": "Anatomical Location",
    "cdisc_submission_value": "FEMORAL VEIN",
    "cdisc_synonyms": null
  },
  {
    "codelist_name": "Anatomical Location",
    "cdisc_submission_value": "FEMORO-POPLITEAL PERIPHERAL ARTERY",
    "cdisc_synonyms": null
  },
  {
    "codelist_name": "Anatomical Location",
    "cdisc_submission_value": "FEMUR SHAFT",
    "cdisc_synonyms": null
  },
  {
    "codelist_name": "Anatomical Location",
    "cdisc_submission_value": "FIBULA SHAFT",
    "cdisc_synonyms": null
  },
  {
    "codelist_name": "Anatomical Location",
    "cdisc_submission_value": "FIBULA",
    "cdisc_synonyms": null
  },
  {
    "codelist_name": "Anatomical Location",
    "cdisc_submission_value": "FIBULAR VEIN",
    "cdisc_synonyms": null
  },
  {
    "codelist_name": "Anatomical Location",
    "cdisc_submission_value": "FINGER EXTENSOR MUSCLES",
    "cdisc_synonyms": null
  },
  {
    "codelist_name": "Anatomical Location",
    "cdisc_submission_value": "FINGER EXTENSOR TENDONS",
    "cdisc_synonyms": null
  },
  {
    "codelist_name": "Anatomical Location",
    "cdisc_submission_value": "FINGER FLEXOR MUSCLES",
    "cdisc_synonyms": null
  },
  {
    "codelist_name": "Anatomical Location",
    "cdisc_submission_value": "FINGER FLEXOR TENDONS",
    "cdisc_synonyms": null
  },
  {
    "codelist_name": "Anatomical Location",
    "cdisc_submission_value": "FINGERTIP",
    "cdisc_synonyms": null
  },
  {
    "codelist_name": "Anatomical Location",
    "cdisc_submission_value": "FIRST DORSAL INTEROSSEOUS MUSCLE OF THE FOOT",
    "cdisc_synonyms": null
  },
  {
    "codelist_name": "Anatomical Location",
    "cdisc_submission_value": "FIRST DORSAL INTEROSSEOUS MUSCLE OF THE HAND",
    "cdisc_synonyms": null
  },
  {
    "codelist_name": "Anatomical Location",
    "cdisc_submission_value": "FLANK",
    "cdisc_synonyms": null
  },
  {
    "codelist_name": "Anatomical Location",
    "cdisc_submission_value": "FLEXOR CARPI RADIALIS MUSCLE",
    "cdisc_synonyms": null
  },
  {
    "codelist_name": "Anatomical Location",
    "cdisc_submission_value": "FLEXOR CARPI ULNARIS MUSCLE",
    "cdisc_synonyms": null
  },
  {
    "codelist_name": "Anatomical Location",
    "cdisc_submission_value": "FLEXOR DIGITORUM BREVIS MUSCLE",
    "cdisc_synonyms": null
  },
  {
    "codelist_name": "Anatomical Location",
    "cdisc_submission_value": "FLEXOR DIGITORUM LONGUS MUSCLE",
    "cdisc_synonyms": null
  },
  {
    "codelist_name": "Anatomical Location",
    "cdisc_submission_value": "FLEXOR DIGITORUM PROFUNDUS MUSCLE",
    "cdisc_synonyms": null
  },
  {
    "codelist_name": "Anatomical Location",
    "cdisc_submission_value": "FLEXOR DIGITORUM SUPERFICIALIS MUSCLE",
    "cdisc_synonyms": null
  },
  {
    "codelist_name": "Anatomical Location",
    "cdisc_submission_value": "FLEXOR HALLUCIS BREVIS MUSCLE",
    "cdisc_synonyms": null
  },
  {
    "codelist_name": "Anatomical Location",
    "cdisc_submission_value": "FLEXOR HALLUCIS LONGUS MUSCLE",
    "cdisc_synonyms": null
  },
  {
    "codelist_name": "Anatomical Location",
    "cdisc_submission_value": "FLEXOR POLLICIS BREVIS MUSCLE",
    "cdisc_synonyms": null
  },
  {
    "codelist_name": "Anatomical Location",
    "cdisc_submission_value": "FLEXOR POLLICIS LONGUS MUSCLE",
    "cdisc_synonyms": null
  },
  {
    "codelist_name": "Anatomical Location",
    "cdisc_submission_value": "FLOOR OF MOUTH",
    "cdisc_synonyms": null
  },
  {
    "codelist_name": "Anatomical Location",
    "cdisc_submission_value": "FOOT",
    "cdisc_synonyms": null
  },
  {
    "codelist_name": "Anatomical Location",
    "cdisc_submission_value": "FOREARM PRONATOR MUSCLES",
    "cdisc_synonyms": null
  },
  {
    "codelist_name": "Anatomical Location",
    "cdisc_submission_value": "FOREBRAIN",
    "cdisc_synonyms": null
  },
  {
    "codelist_name": "Anatomical Location",
    "cdisc_submission_value": "FORELIMB",
    "cdisc_synonyms": null
  },
  {
    "codelist_name": "Anatomical Location",
    "cdisc_submission_value": "FRONTAL BONE",
    "cdisc_synonyms": null
  },
  {
    "codelist_name": "Anatomical Location",
    "cdisc_submission_value": "FRONTAL CORTEX",
    "cdisc_synonyms": null
  },
  {
    "codelist_name": "Anatomical Location",
    "cdisc_submission_value": "FRONTALIS MUSCLE",
    "cdisc_synonyms": null
  },
  {
    "codelist_name": "Anatomical Location",
    "cdisc_submission_value": "FRONTO-PARIETAL REGION",
    "cdisc_synonyms": null
  },
  {
    "codelist_name": "Anatomical Location",
    "cdisc_submission_value": "FRONTO-TEMPORAL REGION",
    "cdisc_synonyms": null
  },
  {
    "codelist_name": "Anatomical Location",
    "cdisc_submission_value": "FUNDUS OF THE EYE",
    "cdisc_synonyms": null
  },
  {
    "codelist_name": "Anatomical Location",
    "cdisc_submission_value": "FUNDUS OF THE STOMACH",
    "cdisc_synonyms": null
  },
  {
    "codelist_name": "Anatomical Location",
    "cdisc_submission_value": "FUNDUS UTERI",
    "cdisc_synonyms": null
  },
  {
    "codelist_name": "Anatomical Location",
    "cdisc_submission_value": "GALLBLADDER",
    "cdisc_synonyms": null
  },
  {
    "codelist_name": "Anatomical Location",
    "cdisc_submission_value": "GASTRIC CARDIA",
    "cdisc_synonyms": null
  },
  {
    "codelist_name": "Anatomical Location",
    "cdisc_submission_value": "GASTRIC CURVATURE LYMPH NODE",
    "cdisc_synonyms": null
  },
  {
    "codelist_name": "Anatomical Location",
    "cdisc_submission_value": "GASTROCNEMIUS MUSCLE",
    "cdisc_synonyms": null
  },
  {
    "codelist_name": "Anatomical Location",
    "cdisc_submission_value": "GASTROCNEMIUS MUSCLE, LATERAL HEAD",
    "cdisc_synonyms": null
  },
  {
    "codelist_name": "Anatomical Location",
    "cdisc_submission_value": "GASTROCNEMIUS MUSCLE, MEDIAL HEAD",
    "cdisc_synonyms": null
  },
  {
    "codelist_name": "Anatomical Location",
    "cdisc_submission_value": "GASTROINTESTINAL TRACT, LOWER, WALL",
    "cdisc_synonyms": null
  },
  {
    "codelist_name": "Anatomical Location",
    "cdisc_submission_value": "GASTROINTESTINAL TRACT, UPPER, WALL",
    "cdisc_synonyms": null
  },
  {
    "codelist_name": "Anatomical Location",
    "cdisc_submission_value": "GASTROINTESTINAL TRACT, WALL",
    "cdisc_synonyms": null
  },
  {
    "codelist_name": "Anatomical Location",
    "cdisc_submission_value": "GENIOGLOSSUS MUSCLE",
    "cdisc_synonyms": null
  },
  {
    "codelist_name": "Anatomical Location",
    "cdisc_submission_value": "GENITAL TUBERCLE",
    "cdisc_synonyms": null
  },
  {
    "codelist_name": "Anatomical Location",
    "cdisc_submission_value": "GENITALIA",
    "cdisc_synonyms": null
  },
  {
    "codelist_name": "Anatomical Location",
    "cdisc_submission_value": "GENITOURINARY SYSTEM",
    "cdisc_synonyms": null
  },
  {
    "codelist_name": "Anatomical Location",
    "cdisc_submission_value": "GINGIVAL MUCOSA",
    "cdisc_synonyms": null
  },
  {
    "codelist_name": "Anatomical Location",
    "cdisc_submission_value": "GLOBUS PALLIDUS",
    "cdisc_synonyms": null
  },
  {
    "codelist_name": "Anatomical Location",
    "cdisc_submission_value": "GLOMERULUS",
    "cdisc_synonyms": null
  },
  {
    "codelist_name": "Anatomical Location",
    "cdisc_submission_value": "GLOSSOPHARYNGEAL NERVE",
    "cdisc_synonyms": null
  },
  {
    "codelist_name": "Anatomical Location",
    "cdisc_submission_value": "GLUTEAL MUSCLE",
    "cdisc_synonyms": null
  },
  {
    "codelist_name": "Anatomical Location",
    "cdisc_submission_value": "GLUTEUS MAXIMUS",
    "cdisc_synonyms": null
  },
  {
    "codelist_name": "Anatomical Location",
    "cdisc_submission_value": "GLUTEUS MEDIUS",
    "cdisc_synonyms": null
  },
  {
    "codelist_name": "Anatomical Location",
    "cdisc_submission_value": "GONAD",
    "cdisc_synonyms": null
  },
  {
    "codelist_name": "Anatomical Location",
    "cdisc_submission_value": "GRACILIS MUSCLE",
    "cdisc_synonyms": null
  },
  {
    "codelist_name": "Anatomical Location",
    "cdisc_submission_value": "GREAT VESSELS",
    "cdisc_synonyms": null
  },
  {
    "codelist_name": "Anatomical Location",
    "cdisc_submission_value": "HAIR BULB",
    "cdisc_synonyms": null
  },
  {
    "codelist_name": "Anatomical Location",
    "cdisc_submission_value": "HAIR FOLLICLE",
    "cdisc_synonyms": null
  },
  {
    "codelist_name": "Anatomical Location",
    "cdisc_submission_value": "HAIR ROOT",
    "cdisc_synonyms": null
  },
  {
    "codelist_name": "Anatomical Location",
    "cdisc_submission_value": "HAMSTRING MUSCLE",
    "cdisc_synonyms": null
  },
  {
    "codelist_name": "Anatomical Location",
    "cdisc_submission_value": "HARD PALATE",
    "cdisc_synonyms": null
  },
  {
    "codelist_name": "Anatomical Location",
    "cdisc_submission_value": "HEAD AND NECK",
    "cdisc_synonyms": null
  },
  {
    "codelist_name": "Anatomical Location",
    "cdisc_submission_value": "HEAD SOFT TISSUE",
    "cdisc_synonyms": null
  },
  {
    "codelist_name": "Anatomical Location",
    "cdisc_submission_value": "HEAD",
    "cdisc_synonyms": null
  },
  {
    "codelist_name": "Anatomical Location",
    "cdisc_submission_value": "HEART",
    "cdisc_synonyms": null
  },
  {
    "codelist_name": "Anatomical Location",
    "cdisc_submission_value": "HEART, FORAMEN OVALE",
    "cdisc_synonyms": null
  },
  {
    "codelist_name": "Anatomical Location",
    "cdisc_submission_value": "HEART, LEFT ATRIAL APPENDAGE",
    "cdisc_synonyms": null
  },
  {
    "codelist_name": "Anatomical Location",
    "cdisc_submission_value": "HEART, LEFT ATRIUM",
    "cdisc_synonyms": null
  },
  {
    "codelist_name": "Anatomical Location",
    "cdisc_submission_value": "HEART, LEFT VENTRICLE, APEX SHORT AXIS",
    "cdisc_synonyms": null
  },
  {
    "codelist_name": "Anatomical Location",
    "cdisc_submission_value": "HEART, LEFT VENTRICLE, BASE SHORT AXIS",
    "cdisc_synonyms": null
  },
  {
    "codelist_name": "Anatomical Location",
    "cdisc_submission_value": "HEART, LEFT VENTRICLE, MID-LEVEL SHORT AXIS",
    "cdisc_synonyms": null
  },
  {
    "codelist_name": "Anatomical Location",
    "cdisc_submission_value": "HEART, LEFT VENTRICULAR OUTFLOW TRACT",
    "cdisc_synonyms": null
  },
  {
    "codelist_name": "Anatomical Location",
    "cdisc_submission_value": "HEART, LEFT VENTRICULAR WALL",
    "cdisc_synonyms": null
  },
  {
    "codelist_name": "Anatomical Location",
    "cdisc_submission_value": "HEART, RIGHT ATRIAL APPENDAGE",
    "cdisc_synonyms": null
  },
  {
    "codelist_name": "Anatomical Location",
    "cdisc_submission_value": "HEART, RIGHT ATRIUM",
    "cdisc_synonyms": null
  },
  {
    "codelist_name": "Anatomical Location",
    "cdisc_submission_value": "HEART, RIGHT VENTRICLE, BASE",
    "cdisc_synonyms": null
  },
  {
    "codelist_name": "Anatomical Location",
    "cdisc_submission_value": "HEART, RIGHT VENTRICLE, MID-LEVEL",
    "cdisc_synonyms": null
  },
  {
    "codelist_name": "Anatomical Location",
    "cdisc_submission_value": "HEART, RIGHT VENTRICULAR FREE WALL",
    "cdisc_synonyms": null
  },
  {
    "codelist_name": "Anatomical Location",
    "cdisc_submission_value": "HEART, RIGHT VENTRICULAR OUTFLOW TRACT",
    "cdisc_synonyms": null
  },
  {
    "codelist_name": "Anatomical Location",
    "cdisc_submission_value": "HEART, RIGHT VENTRICULAR WALL",
    "cdisc_synonyms": null
  },
  {
    "codelist_name": "Anatomical Location",
    "cdisc_submission_value": "HEART, VENTRICULAR CHAMBER",
    "cdisc_synonyms": null
  },
  {
    "codelist_name": "Anatomical Location",
    "cdisc_submission_value": "HEART, VENTRICULAR WALL",
    "cdisc_synonyms": null
  },
  {
    "codelist_name": "Anatomical Location",
    "cdisc_submission_value": "HEEL OF THE FOOT",
    "cdisc_synonyms": null
  },
  {
    "codelist_name": "Anatomical Location",
    "cdisc_submission_value": "HEPATIC ARTERY",
    "cdisc_synonyms": null
  },
  {
    "codelist_name": "Anatomical Location",
    "cdisc_submission_value": "HEPATIC LYMPH NODE",
    "cdisc_synonyms": null
  },
  {
    "codelist_name": "Anatomical Location",
    "cdisc_submission_value": "HEPATIC VEIN",
    "cdisc_synonyms": null
  },
  {
    "codelist_name": "Anatomical Location",
    "cdisc_submission_value": "HEPATOBILIARY SYSTEM",
    "cdisc_synonyms": null
  },
  {
    "codelist_name": "Anatomical Location",
    "cdisc_submission_value": "HILAR LYMPH NODE",
    "cdisc_synonyms": null
  },
  {
    "codelist_name": "Anatomical Location",
    "cdisc_submission_value": "HINDLIMB",
    "cdisc_synonyms": null
  },
  {
    "codelist_name": "Anatomical Location",
    "cdisc_submission_value": "HIP ABDUCTOR MUSCLES",
    "cdisc_synonyms": null
  },
  {
    "codelist_name": "Anatomical Location",
    "cdisc_submission_value": "HIP ADDUCTOR MUSCLES",
    "cdisc_synonyms": null
  },
  {
    "codelist_name": "Anatomical Location",
    "cdisc_submission_value": "HIP ADDUCTORS",
    "cdisc_synonyms": null
  },
  {
    "codelist_name": "Anatomical Location",
    "cdisc_submission_value": "HIP EXTENSOR MUSCLES",
    "cdisc_synonyms": null
  },
  {
    "codelist_name": "Anatomical Location",
    "cdisc_submission_value": "HIP FLEXOR MUSCLES",
    "cdisc_synonyms": null
  },
  {
    "codelist_name": "Anatomical Location",
    "cdisc_submission_value": "HIPPOCAMPUS",
    "cdisc_synonyms": null
  },
  {
    "codelist_name": "Anatomical Location",
    "cdisc_submission_value": "HUMERAL EPICONDYLE",
    "cdisc_synonyms": null
  },
  {
    "codelist_name": "Anatomical Location",
    "cdisc_submission_value": "HUMERUS SHAFT",
    "cdisc_synonyms": null
  },
  {
    "codelist_name": "Anatomical Location",
    "cdisc_submission_value": "HYMENAL RING",
    "cdisc_synonyms": null
  },
  {
    "codelist_name": "Anatomical Location",
    "cdisc_submission_value": "HYPOGLOSSAL NERVE",
    "cdisc_synonyms": null
  },
  {
    "codelist_name": "Anatomical Location",
    "cdisc_submission_value": "HYPOTHALAMUS",
    "cdisc_synonyms": null
  },
  {
    "codelist_name": "Anatomical Location",
    "cdisc_submission_value": "ILEOCOLIC LYMPH NODE",
    "cdisc_synonyms": null
  },
  {
    "codelist_name": "Anatomical Location",
    "cdisc_submission_value": "ILEUM LYMPH NODE",
    "cdisc_synonyms": null
  },
  {
    "codelist_name": "Anatomical Location",
    "cdisc_submission_value": "ILEUM WALL",
    "cdisc_synonyms": null
  },
  {
    "codelist_name": "Anatomical Location",
    "cdisc_submission_value": "ILEUM",
    "cdisc_synonyms": null
  },
  {
    "codelist_name": "Anatomical Location",
    "cdisc_submission_value": "ILIAC CREST",
    "cdisc_synonyms": null
  },
  {
    "codelist_name": "Anatomical Location",
    "cdisc_submission_value": "ILIAC FOSSA",
    "cdisc_synonyms": null
  },
  {
    "codelist_name": "Anatomical Location",
    "cdisc_submission_value": "ILIAC LYMPH NODE",
    "cdisc_synonyms": null
  },
  {
    "codelist_name": "Anatomical Location",
    "cdisc_submission_value": "ILIAC VEIN",
    "cdisc_synonyms": null
  },
  {
    "codelist_name": "Anatomical Location",
    "cdisc_submission_value": "ILIOPSOAS MUSCLE",
    "cdisc_synonyms": null
  },
  {
    "codelist_name": "Anatomical Location",
    "cdisc_submission_value": "ILIOTIBIAL BAND",
    "cdisc_synonyms": null
  },
  {
    "codelist_name": "Anatomical Location",
    "cdisc_submission_value": "INCISOR",
    "cdisc_synonyms": null
  },
  {
    "codelist_name": "Anatomical Location",
    "cdisc_submission_value": "INFERIOR MEDIASTINAL LYMPH NODE",
    "cdisc_synonyms": null
  },
  {
    "codelist_name": "Anatomical Location",
    "cdisc_submission_value": "INFERIOR PUBIC RAMUS",
    "cdisc_synonyms": null
  },
  {
    "codelist_name": "Anatomical Location",
    "cdisc_submission_value": "INFERIOR TEMPORAL GYRUS",
    "cdisc_synonyms": null
  },
  {
    "codelist_name": "Anatomical Location",
    "cdisc_submission_value": "INFRARENAL AORTA",
    "cdisc_synonyms": null
  },
  {
    "codelist_name": "Anatomical Location",
    "cdisc_submission_value": "INFRASPINATUS MUSCLE",
    "cdisc_synonyms": null
  },
  {
    "codelist_name": "Anatomical Location",
    "cdisc_submission_value": "INFRASPINATUS TENDON",
    "cdisc_synonyms": null
  },
  {
    "codelist_name": "Anatomical Location",
    "cdisc_submission_value": "INFRATENTORIAL BRAIN",
    "cdisc_synonyms": null
  },
  {
    "codelist_name": "Anatomical Location",
    "cdisc_submission_value": "INGUINAL LYMPH NODE",
    "cdisc_synonyms": null
  },
  {
    "codelist_name": "Anatomical Location",
    "cdisc_submission_value": "INTERNAL ILIAC ARTERY",
    "cdisc_synonyms": null
  },
  {
    "codelist_name": "Anatomical Location",
    "cdisc_submission_value": "INTERNAL ILIAC LYMPH NODE",
    "cdisc_synonyms": null
  },
  {
    "codelist_name": "Anatomical Location",
    "cdisc_submission_value": "INTERNAL MAMMARY ARTERY",
    "cdisc_synonyms": null
  },
  {
    "codelist_name": "Anatomical Location",
    "cdisc_submission_value": "INTERNAL MAMMARY LYMPH NODE",
    "cdisc_synonyms": null
  },
  {
    "codelist_name": "Anatomical Location",
    "cdisc_submission_value": "INTERPARIETAL BONE",
    "cdisc_synonyms": null
  },
  {
    "codelist_name": "Anatomical Location",
    "cdisc_submission_value": "INTERTROCHANTERIC REGION",
    "cdisc_synonyms": null
  },
  {
    "codelist_name": "Anatomical Location",
    "cdisc_submission_value": "INTESTINAL WALL",
    "cdisc_synonyms": null
  },
  {
    "codelist_name": "Anatomical Location",
    "cdisc_submission_value": "INTESTINE",
    "cdisc_synonyms": null
  },
  {
    "codelist_name": "Anatomical Location",
    "cdisc_submission_value": "INTRACRANIAL ARTERY",
    "cdisc_synonyms": null
  },
  {
    "codelist_name": "Anatomical Location",
    "cdisc_submission_value": "INTRAHEPATIC BILE DUCT",
    "cdisc_synonyms": null
  },
  {
    "codelist_name": "Anatomical Location",
    "cdisc_submission_value": "INTRARETINAL SPACE",
    "cdisc_synonyms": null
  },
  {
    "codelist_name": "Anatomical Location",
    "cdisc_submission_value": "INTRATHORACIC LYMPH NODE",
    "cdisc_synonyms": null
  },
  {
    "codelist_name": "Anatomical Location",
    "cdisc_submission_value": "IRIS",
    "cdisc_synonyms": null
  },
  {
    "codelist_name": "Anatomical Location",
    "cdisc_submission_value": "ISCHIAL TUBEROSITY",
    "cdisc_synonyms": null
  },
  {
    "codelist_name": "Anatomical Location",
    "cdisc_submission_value": "ISCHIORECTAL FOSSA",
    "cdisc_synonyms": null
  },
  {
    "codelist_name": "Anatomical Location",
    "cdisc_submission_value": "JAW",
    "cdisc_synonyms": null
  },
  {
    "codelist_name": "Anatomical Location",
    "cdisc_submission_value": "JEJUNUM",
    "cdisc_synonyms": null
  },
  {
    "codelist_name": "Anatomical Location",
    "cdisc_submission_value": "KIDNEY INTERPOLAR REGION",
    "cdisc_synonyms": null
  },
  {
    "codelist_name": "Anatomical Location",
    "cdisc_submission_value": "KIDNEY",
    "cdisc_synonyms": null
  },
  {
    "codelist_name": "Anatomical Location",
    "cdisc_submission_value": "KNEE EXTENSOR MUSCLES",
    "cdisc_synonyms": null
  },
  {
    "codelist_name": "Anatomical Location",
    "cdisc_submission_value": "KNEE FLEXOR MUSCLES",
    "cdisc_synonyms": null
  },
  {
    "codelist_name": "Anatomical Location",
    "cdisc_submission_value": "KNEE JOINT TENDONS",
    "cdisc_synonyms": null
  },
  {
    "codelist_name": "Anatomical Location",
    "cdisc_submission_value": "L2-L3 INTERVERTEBRAL SPACE",
    "cdisc_synonyms": null
  },
  {
    "codelist_name": "Anatomical Location",
    "cdisc_submission_value": "L3-L4 INTERVERTEBRAL SPACE",
    "cdisc_synonyms": null
  },
  {
    "codelist_name": "Anatomical Location",
    "cdisc_submission_value": "L4-L5 INTERVERTEBRAL SPACE",
    "cdisc_synonyms": null
  },
  {
    "codelist_name": "Anatomical Location",
    "cdisc_submission_value": "L5-S1 INTERVERTEBRAL SPACE",
    "cdisc_synonyms": null
  },
  {
    "codelist_name": "Anatomical Location",
    "cdisc_submission_value": "L6 VERTEBRA",
    "cdisc_synonyms": null
  },
  {
    "codelist_name": "Anatomical Location",
    "cdisc_submission_value": "LACRIMAL GLAND",
    "cdisc_synonyms": null
  },
  {
    "codelist_name": "Anatomical Location",
    "cdisc_submission_value": "LARYNX",
    "cdisc_synonyms": null
  },
  {
    "codelist_name": "Anatomical Location",
    "cdisc_submission_value": "LATERAL HUMERAL EPICONDYLE",
    "cdisc_synonyms": null
  },
  {
    "codelist_name": "Anatomical Location",
    "cdisc_submission_value": "LEFT ANTERIOR DESCENDING ARTERY OSTIUM",
    "cdisc_synonyms": null
  },
  {
    "codelist_name": "Anatomical Location",
    "cdisc_submission_value": "LEFT ATRIAL ENDOCARDIUM",
    "cdisc_synonyms": null
  },
  {
    "codelist_name": "Anatomical Location",
    "cdisc_submission_value": "LEFT ATRIOVENTRICULAR ARTERY",
    "cdisc_synonyms": null
  },
  {
    "codelist_name": "Anatomical Location",
    "cdisc_submission_value": "LEFT CIRCUMFLEX ARTERY OSTIUM",
    "cdisc_synonyms": null
  },
  {
    "codelist_name": "Anatomical Location",
    "cdisc_submission_value": "LEFT CIRCUMFLEX CORONARY ARTERY",
    "cdisc_synonyms": null
  },
  {
    "codelist_name": "Anatomical Location",
    "cdisc_submission_value": "LEFT MAIN CORONARY ARTERY BIFURCATION",
    "cdisc_synonyms": null
  },
  {
    "codelist_name": "Anatomical Location",
    "cdisc_submission_value": "LEFT MAIN CORONARY ARTERY BODY",
    "cdisc_synonyms": null
  },
  {
    "codelist_name": "Anatomical Location",
    "cdisc_submission_value": "LEFT MAIN CORONARY ARTERY OSTIUM",
    "cdisc_synonyms": null
  },
  {
    "codelist_name": "Anatomical Location",
    "cdisc_submission_value": "LEFT POSTERIOR DESCENDING ARTERY",
    "cdisc_synonyms": null
  },
  {
    "codelist_name": "Anatomical Location",
    "cdisc_submission_value": "LEFT VENTRICULAR APEX SEGMENT",
    "cdisc_synonyms": null
  },
  {
    "codelist_name": "Anatomical Location",
    "cdisc_submission_value": "LEFT VENTRICULAR APICAL ANTERIOR SEGMENT",
    "cdisc_synonyms": null
  },
  {
    "codelist_name": "Anatomical Location",
    "cdisc_submission_value": "LEFT VENTRICULAR APICAL INFERIOR SEGMENT",
    "cdisc_synonyms": null
  },
  {
    "codelist_name": "Anatomical Location",
    "cdisc_submission_value": "LEFT VENTRICULAR APICAL LATERAL SEGMENT",
    "cdisc_synonyms": null
  },
  {
    "codelist_name": "Anatomical Location",
    "cdisc_submission_value": "LEFT VENTRICULAR APICAL SEPTAL SEGMENT",
    "cdisc_synonyms": null
  },
  {
    "codelist_name": "Anatomical Location",
    "cdisc_submission_value": "LEFT VENTRICULAR BASAL ANTERIOR SEGMENT",
    "cdisc_synonyms": null
  },
  {
    "codelist_name": "Anatomical Location",
    "cdisc_submission_value": "LEFT VENTRICULAR BASAL ANTEROLATERAL SEGMENT",
    "cdisc_synonyms": null
  },
  {
    "codelist_name": "Anatomical Location",
    "cdisc_submission_value": "LEFT VENTRICULAR BASAL ANTEROSEPTAL SEGMENT",
    "cdisc_synonyms": null
  },
  {
    "codelist_name": "Anatomical Location",
    "cdisc_submission_value": "LEFT VENTRICULAR BASAL INFERIOR SEGMENT",
    "cdisc_synonyms": null
  },
  {
    "codelist_name": "Anatomical Location",
    "cdisc_submission_value": "LEFT VENTRICULAR BASAL INFEROLATERAL SEGMENT",
    "cdisc_synonyms": null
  },
  {
    "codelist_name": "Anatomical Location",
    "cdisc_submission_value": "LEFT VENTRICULAR BASAL INFEROSEPTAL SEGMENT",
    "cdisc_synonyms": null
  },
  {
    "codelist_name": "Anatomical Location",
    "cdisc_submission_value": "LEFT VENTRICULAR ENDOCARDIUM",
    "cdisc_synonyms": null
  },
  {
    "codelist_name": "Anatomical Location",
    "cdisc_submission_value": "LEFT VENTRICULAR EPICARDIUM",
    "cdisc_synonyms": null
  },
  {
    "codelist_name": "Anatomical Location",
    "cdisc_submission_value": "LEFT VENTRICULAR MID ANTERIOR SEGMENT",
    "cdisc_synonyms": null
  },
  {
    "codelist_name": "Anatomical Location",
    "cdisc_submission_value": "LEFT VENTRICULAR MID ANTEROLATERAL SEGMENT",
    "cdisc_synonyms": null
  },
  {
    "codelist_name": "Anatomical Location",
    "cdisc_submission_value": "LEFT VENTRICULAR MID ANTEROSEPTAL SEGMENT",
    "cdisc_synonyms": null
  },
  {
    "codelist_name": "Anatomical Location",
    "cdisc_submission_value": "LEFT VENTRICULAR MID INFERIOR SEGMENT",
    "cdisc_synonyms": null
  },
  {
    "codelist_name": "Anatomical Location",
    "cdisc_submission_value": "LEFT VENTRICULAR MID INFEROLATERAL SEGMENT",
    "cdisc_synonyms": null
  },
  {
    "codelist_name": "Anatomical Location",
    "cdisc_submission_value": "LEFT VENTRICULAR MID INFEROSEPTAL SEGMENT",
    "cdisc_synonyms": null
  },
  {
    "codelist_name": "Anatomical Location",
    "cdisc_submission_value": "LEPTOMENINGES",
    "cdisc_synonyms": null
  },
  {
    "codelist_name": "Anatomical Location",
    "cdisc_submission_value": "LESSER CURVATURE OF THE STOMACH",
    "cdisc_synonyms": null
  },
  {
    "codelist_name": "Anatomical Location",
    "cdisc_submission_value": "LESSER TROCHANTER",
    "cdisc_synonyms": null
  },
  {
    "codelist_name": "Anatomical Location",
    "cdisc_submission_value": "LINGULA OF THE LUNG",
    "cdisc_synonyms": null
  },
  {
    "codelist_name": "Anatomical Location",
    "cdisc_submission_value": "LIVER LOBE",
    "cdisc_synonyms": null
  },
  {
    "codelist_name": "Anatomical Location",
    "cdisc_submission_value": "LIVER",
    "cdisc_synonyms": null
  },
  {
    "codelist_name": "Anatomical Location",
    "cdisc_submission_value": "LIVER, LEFT LOBE",
    "cdisc_synonyms": null
  },
  {
    "codelist_name": "Anatomical Location",
    "cdisc_submission_value": "LIVER, QUADRATE LOBE",
    "cdisc_synonyms": null
  },
  {
    "codelist_name": "Anatomical Location",
    "cdisc_submission_value": "LIVER, RIGHT LOBE",
    "cdisc_synonyms": null
  },
  {
    "codelist_name": "Anatomical Location",
    "cdisc_submission_value": "LOCUS CERULEUS",
    "cdisc_synonyms": null
  },
  {
    "codelist_name": "Anatomical Location",
    "cdisc_submission_value": "LOWER GASTROINTESTINAL TRACT LYMPH NODE",
    "cdisc_synonyms": null
  },
  {
    "codelist_name": "Anatomical Location",
    "cdisc_submission_value": "LOWER JUGULAR LYMPH NODE",
    "cdisc_synonyms": null
  },
  {
    "codelist_name": "Anatomical Location",
    "cdisc_submission_value": "LOWER LIMB SOFT TISSUE",
    "cdisc_synonyms": null
  },
  {
    "codelist_name": "Anatomical Location",
    "cdisc_submission_value": "LOWER RESPIRATORY SYSTEM",
    "cdisc_synonyms": null
  },
  {
    "codelist_name": "Anatomical Location",
    "cdisc_submission_value": "LUMBAR REGION",
    "cdisc_synonyms": null
  },
  {
    "codelist_name": "Anatomical Location",
    "cdisc_submission_value": "LUMBAR SPINE",
    "cdisc_synonyms": null
  },
  {
    "codelist_name": "Anatomical Location",
    "cdisc_submission_value": "LUMBRICAL MUSCLES OF THE FOOT",
    "cdisc_synonyms": null
  },
  {
    "codelist_name": "Anatomical Location",
    "cdisc_submission_value": "LUMBRICAL MUSCLES OF THE HAND",
    "cdisc_synonyms": null
  },
  {
    "codelist_name": "Anatomical Location",
    "cdisc_submission_value": "LUNG LOBE",
    "cdisc_synonyms": null
  },
  {
    "codelist_name": "Anatomical Location",
    "cdisc_submission_value": "LUNG",
    "cdisc_synonyms": null
  },
  {
    "codelist_name": "Anatomical Location",
    "cdisc_submission_value": "LUNG, LEFT, INFERIOR LOBE, ANTERIOR BASAL SEGMENT",
    "cdisc_synonyms": null
  },
  {
    "codelist_name": "Anatomical Location",
    "cdisc_submission_value": "LUNG, LEFT, INFERIOR LOBE, LATERAL BASAL SEGMENT",
    "cdisc_synonyms": null
  },
  {
    "codelist_name": "Anatomical Location",
    "cdisc_submission_value": "LUNG, LEFT, INFERIOR LOBE, MEDIAL BASAL SEGMENT",
    "cdisc_synonyms": null
  },
  {
    "codelist_name": "Anatomical Location",
    "cdisc_submission_value": "LUNG, LEFT, INFERIOR LOBE, POSTERIOR BASAL SEGMENT",
    "cdisc_synonyms": null
  },
  {
    "codelist_name": "Anatomical Location",
    "cdisc_submission_value": "LUNG, LEFT, INFERIOR LOBE, SUPERIOR SEGMENT",
    "cdisc_synonyms": null
  },
  {
    "codelist_name": "Anatomical Location",
    "cdisc_submission_value": "LUNG, LEFT, SUPERIOR LOBE, ANTERIOR SEGMENT",
    "cdisc_synonyms": null
  },
  {
    "codelist_name": "Anatomical Location",
    "cdisc_submission_value": "LUNG, LEFT, SUPERIOR LOBE, APICOPOSTERIOR SEGMENT",
    "cdisc_synonyms": null
  },
  {
    "codelist_name": "Anatomical Location",
    "cdisc_submission_value": "LUNG, LEFT, SUPERIOR LOBE, INFERIOR LINGULAR SEGMENT",
    "cdisc_synonyms": null
  },
  {
    "codelist_name": "Anatomical Location",
    "cdisc_submission_value": "LUNG, LEFT, SUPERIOR LOBE, SUPERIOR LINGULAR SEGMENT",
    "cdisc_synonyms": null
  },
  {
    "codelist_name": "Anatomical Location",
    "cdisc_submission_value": "LUNG, RIGHT, INFERIOR LOBE, ANTERIOR BASAL SEGMENT",
    "cdisc_synonyms": null
  },
  {
    "codelist_name": "Anatomical Location",
    "cdisc_submission_value": "LUNG, RIGHT, INFERIOR LOBE, LATERAL BASAL SEGMENT",
    "cdisc_synonyms": null
  },
  {
    "codelist_name": "Anatomical Location",
    "cdisc_submission_value": "LUNG, RIGHT, INFERIOR LOBE, MEDIAL BASAL SEGMENT",
    "cdisc_synonyms": null
  },
  {
    "codelist_name": "Anatomical Location",
    "cdisc_submission_value": "LUNG, RIGHT, INFERIOR LOBE, POSTERIOR BASAL SEGMENT",
    "cdisc_synonyms": null
  },
  {
    "codelist_name": "Anatomical Location",
    "cdisc_submission_value": "LUNG, RIGHT, INFERIOR LOBE, SUPERIOR SEGMENT",
    "cdisc_synonyms": null
  },
  {
    "codelist_name": "Anatomical Location",
    "cdisc_submission_value": "LUNG, RIGHT, MIDDLE LOBE, LATERAL SEGMENT",
    "cdisc_synonyms": null
  },
  {
    "codelist_name": "Anatomical Location",
    "cdisc_submission_value": "LUNG, RIGHT, MIDDLE LOBE, MEDIAL SEGMENT",
    "cdisc_synonyms": null
  },
  {
    "codelist_name": "Anatomical Location",
    "cdisc_submission_value": "LUNG, RIGHT, SUPERIOR LOBE, ANTERIOR SEGMENT",
    "cdisc_synonyms": null
  },
  {
    "codelist_name": "Anatomical Location",
    "cdisc_submission_value": "LUNG, RIGHT, SUPERIOR LOBE, APICAL SEGMENT",
    "cdisc_synonyms": null
  },
  {
    "codelist_name": "Anatomical Location",
    "cdisc_submission_value": "LUNG, RIGHT, SUPERIOR LOBE, POSTERIOR SEGMENT",
    "cdisc_synonyms": null
  },
  {
    "codelist_name": "Anatomical Location",
    "cdisc_submission_value": "MACULA",
    "cdisc_synonyms": null
  },
  {
    "codelist_name": "Anatomical Location",
    "cdisc_submission_value": "MALE REPRODUCTIVE SYSTEM",
    "cdisc_synonyms": null
  },
  {
    "codelist_name": "Anatomical Location",
    "cdisc_submission_value": "MAMMARY GLAND",
    "cdisc_synonyms": null
  },
  {
    "codelist_name": "Anatomical Location",
    "cdisc_submission_value": "MASSETER MUSCLE",
    "cdisc_synonyms": null
  },
  {
    "codelist_name": "Anatomical Location",
    "cdisc_submission_value": "MAXILLA",
    "cdisc_synonyms": null
  },
  {
    "codelist_name": "Anatomical Location",
    "cdisc_submission_value": "MECKELS CAVE",
    "cdisc_synonyms": null
  },
  {
    "codelist_name": "Anatomical Location",
    "cdisc_submission_value": "MEDIAL FEMORAL CONDYLE",
    "cdisc_synonyms": null
  },
  {
    "codelist_name": "Anatomical Location",
    "cdisc_submission_value": "MEDIAN NERVE",
    "cdisc_synonyms": null
  },
  {
    "codelist_name": "Anatomical Location",
    "cdisc_submission_value": "MEDIAN OR LOWER CERVICAL LYMPH NODE",
    "cdisc_synonyms": null
  },
  {
    "codelist_name": "Anatomical Location",
    "cdisc_submission_value": "MEDIASTINAL LYMPH NODE",
    "cdisc_synonyms": null
  },
  {
    "codelist_name": "Anatomical Location",
    "cdisc_submission_value": "MEDIASTINAL SOFT TISSUE",
    "cdisc_synonyms": null
  },
  {
    "codelist_name": "Anatomical Location",
    "cdisc_submission_value": "MEDIASTINUM",
    "cdisc_synonyms": null
  },
  {
    "codelist_name": "Anatomical Location",
    "cdisc_submission_value": "MEDULLA OBLONGATA",
    "cdisc_synonyms": null
  },
  {
    "codelist_name": "Anatomical Location",
    "cdisc_submission_value": "MENINGES",
    "cdisc_synonyms": null
  },
  {
    "codelist_name": "Anatomical Location",
    "cdisc_submission_value": "MENTALIS MUSCLE",
    "cdisc_synonyms": null
  },
  {
    "codelist_name": "Anatomical Location",
    "cdisc_submission_value": "MESENTERIC ARTERY",
    "cdisc_synonyms": null
  },
  {
    "codelist_name": "Anatomical Location",
    "cdisc_submission_value": "MESENTERIC LYMPH NODE",
    "cdisc_synonyms": null
  },
  {
    "codelist_name": "Anatomical Location",
    "cdisc_submission_value": "MESENTERIC VEIN",
    "cdisc_synonyms": null
  },
  {
    "codelist_name": "Anatomical Location",
    "cdisc_submission_value": "MESENTERY",
    "cdisc_synonyms": null
  },
  {
    "codelist_name": "Anatomical Location",
    "cdisc_submission_value": "MESOTHELIUM",
    "cdisc_synonyms": null
  },
  {
    "codelist_name": "Anatomical Location",
    "cdisc_submission_value": "METACARPAL 1 BASE",
    "cdisc_synonyms": null
  },
  {
    "codelist_name": "Anatomical Location",
    "cdisc_submission_value": "METACARPAL BONE 1",
    "cdisc_synonyms": null
  },
  {
    "codelist_name": "Anatomical Location",
    "cdisc_submission_value": "METACARPAL BONE 2",
    "cdisc_synonyms": null
  },
  {
    "codelist_name": "Anatomical Location",
    "cdisc_submission_value": "METACARPAL BONE 3",
    "cdisc_synonyms": null
  },
  {
    "codelist_name": "Anatomical Location",
    "cdisc_submission_value": "METACARPAL BONE 4",
    "cdisc_synonyms": null
  },
  {
    "codelist_name": "Anatomical Location",
    "cdisc_submission_value": "METACARPAL BONE 5",
    "cdisc_synonyms": null
  },
  {
    "codelist_name": "Anatomical Location",
    "cdisc_submission_value": "METACARPAL BONE",
    "cdisc_synonyms": null
  },
  {
    "codelist_name": "Anatomical Location",
    "cdisc_submission_value": "MID-JUGULAR LYMPH NODE",
    "cdisc_synonyms": null
  },
  {
    "codelist_name": "Anatomical Location",
    "cdisc_submission_value": "MID/DISTAL LEFT ANTERIOR DESCENDING CORONARY ARTERY AND ALL DIAGONAL CORONARY BRANCHES",
    "cdisc_synonyms": null
  },
  {
    "codelist_name": "Anatomical Location",
    "cdisc_submission_value": "MIDDLE EAR",
    "cdisc_synonyms": null
  },
  {
    "codelist_name": "Anatomical Location",
    "cdisc_submission_value": "MIDDLE FRONTAL GYRUS",
    "cdisc_synonyms": null
  },
  {
    "codelist_name": "Anatomical Location",
    "cdisc_submission_value": "MIDDLE PHALANX 2 OF THE HAND",
    "cdisc_synonyms": null
  },
  {
    "codelist_name": "Anatomical Location",
    "cdisc_submission_value": "MIDDLE PHALANX 3 OF THE HAND",
    "cdisc_synonyms": null
  },
  {
    "codelist_name": "Anatomical Location",
    "cdisc_submission_value": "MIDDLE PHALANX 4 OF THE HAND",
    "cdisc_synonyms": null
  },
  {
    "codelist_name": "Anatomical Location",
    "cdisc_submission_value": "MIDDLE PHALANX 5 OF THE HAND",
    "cdisc_synonyms": null
  },
  {
    "codelist_name": "Anatomical Location",
    "cdisc_submission_value": "MIDDLE TEMPORAL GYRUS",
    "cdisc_synonyms": null
  },
  {
    "codelist_name": "Anatomical Location",
    "cdisc_submission_value": "MITRAL VALVE ANNULUS",
    "cdisc_synonyms": null
  },
  {
    "codelist_name": "Anatomical Location",
    "cdisc_submission_value": "MITRAL VALVE, ANTERIOR CUSP",
    "cdisc_synonyms": null
  },
  {
    "codelist_name": "Anatomical Location",
    "cdisc_submission_value": "MITRAL VALVE, POSTERIOR CUSP",
    "cdisc_synonyms": null
  },
  {
    "codelist_name": "Anatomical Location",
    "cdisc_submission_value": "MOTOR CORTEX",
    "cdisc_synonyms": null
  },
  {
    "codelist_name": "Anatomical Location",
    "cdisc_submission_value": "MUCOSA OF THE LIP",
    "cdisc_synonyms": null
  },
  {
    "codelist_name": "Anatomical Location",
    "cdisc_submission_value": "MUSCLE",
    "cdisc_synonyms": null
  },
  {
    "codelist_name": "Anatomical Location",
    "cdisc_submission_value": "MUSCULOSKELETAL SYSTEM",
    "cdisc_synonyms": null
  },
  {
    "codelist_name": "Anatomical Location",
    "cdisc_submission_value": "NAIL BED",
    "cdisc_synonyms": null
  },
  {
    "codelist_name": "Anatomical Location",
    "cdisc_submission_value": "NASAL CAVITY",
    "cdisc_synonyms": null
  },
  {
    "codelist_name": "Anatomical Location",
    "cdisc_submission_value": "NASAL SOFT TISSUE",
    "cdisc_synonyms": null
  },
  {
    "codelist_name": "Anatomical Location",
    "cdisc_submission_value": "NASOPHARYNX",
    "cdisc_synonyms": null
  },
  {
    "codelist_name": "Anatomical Location",
    "cdisc_submission_value": "NECK EXTENSOR MUSCLES",
    "cdisc_synonyms": null
  },
  {
    "codelist_name": "Anatomical Location",
    "cdisc_submission_value": "NECK SOFT TISSUE",
    "cdisc_synonyms": null
  },
  {
    "codelist_name": "Anatomical Location",
    "cdisc_submission_value": "NERVE",
    "cdisc_synonyms": null
  },
  {
    "codelist_name": "Anatomical Location",
    "cdisc_submission_value": "NIPPLE",
    "cdisc_synonyms": null
  },
  {
    "codelist_name": "Anatomical Location",
    "cdisc_submission_value": "NUCHAL LYMPH NODE",
    "cdisc_synonyms": null
  },
  {
    "codelist_name": "Anatomical Location",
    "cdisc_submission_value": "NUCLEUS ACCUMBENS",
    "cdisc_synonyms": null
  },
  {
    "codelist_name": "Anatomical Location",
    "cdisc_submission_value": "OBTURATOR EXTERNUS MUSCLE",
    "cdisc_synonyms": null
  },
  {
    "codelist_name": "Anatomical Location",
    "cdisc_submission_value": "OBTURATOR INTERNUS MUSCLE",
    "cdisc_synonyms": null
  },
  {
    "codelist_name": "Anatomical Location",
    "cdisc_submission_value": "OBTURATOR LYMPH NODE",
    "cdisc_synonyms": null
  },
  {
    "codelist_name": "Anatomical Location",
    "cdisc_submission_value": "OBTURATOR MUSCLE",
    "cdisc_synonyms": null
  },
  {
    "codelist_name": "Anatomical Location",
    "cdisc_submission_value": "OCCIPITAL BONE",
    "cdisc_synonyms": null
  },
  {
    "codelist_name": "Anatomical Location",
    "cdisc_submission_value": "OCCIPITAL CORTEX",
    "cdisc_synonyms": null
  },
  {
    "codelist_name": "Anatomical Location",
    "cdisc_submission_value": "OCCIPITAL LOBE",
    "cdisc_synonyms": null
  },
  {
    "codelist_name": "Anatomical Location",
    "cdisc_submission_value": "OCCIPITAL LYMPH NODE",
    "cdisc_synonyms": null
  },
  {
    "codelist_name": "Anatomical Location",
    "cdisc_submission_value": "OCCIPITAL SCALP",
    "cdisc_synonyms": null
  },
  {
    "codelist_name": "Anatomical Location",
    "cdisc_submission_value": "OCCIPITO-TEMPORAL REGION",
    "cdisc_synonyms": null
  },
  {
    "codelist_name": "Anatomical Location",
    "cdisc_submission_value": "OLECRANON BURSA",
    "cdisc_synonyms": null
  },
  {
    "codelist_name": "Anatomical Location",
    "cdisc_submission_value": "OLFACTORY BULB",
    "cdisc_synonyms": null
  },
  {
    "codelist_name": "Anatomical Location",
    "cdisc_submission_value": "OLFACTORY MUCOSA",
    "cdisc_synonyms": null
  },
  {
    "codelist_name": "Anatomical Location",
    "cdisc_submission_value": "OLFACTORY NERVE",
    "cdisc_synonyms": null
  },
  {
    "codelist_name": "Anatomical Location",
    "cdisc_submission_value": "OMENTUM",
    "cdisc_synonyms": null
  },
  {
    "codelist_name": "Anatomical Location",
    "cdisc_submission_value": "OPHTHALMIC ARTERY",
    "cdisc_synonyms": null
  },
  {
    "codelist_name": "Anatomical Location",
    "cdisc_submission_value": "OPPONENS POLLICIS MUSCLE",
    "cdisc_synonyms": null
  },
  {
    "codelist_name": "Anatomical Location",
    "cdisc_submission_value": "OPTIC CHIASM",
    "cdisc_synonyms": null
  },
  {
    "codelist_name": "Anatomical Location",
    "cdisc_submission_value": "ORAL MUCOSA",
    "cdisc_synonyms": null
  },
  {
    "codelist_name": "Anatomical Location",
    "cdisc_submission_value": "ORBICULARIS OCULI MUSCLE",
    "cdisc_synonyms": null
  },
  {
    "codelist_name": "Anatomical Location",
    "cdisc_submission_value": "OROPHARYNGEAL SOFT TISSUE",
    "cdisc_synonyms": null
  },
  {
    "codelist_name": "Anatomical Location",
    "cdisc_submission_value": "OROPHARYNX",
    "cdisc_synonyms": null
  },
  {
    "codelist_name": "Anatomical Location",
    "cdisc_submission_value": "OVARIAN FOLLICLE",
    "cdisc_synonyms": null
  },
  {
    "codelist_name": "Anatomical Location",
    "cdisc_submission_value": "OVARY",
    "cdisc_synonyms": null
  },
  {
    "codelist_name": "Anatomical Location",
    "cdisc_submission_value": "PALATE",
    "cdisc_synonyms": null
  },
  {
    "codelist_name": "Anatomical Location",
    "cdisc_submission_value": "PALATINE UVULA",
    "cdisc_synonyms": null
  },
  {
    "codelist_name": "Anatomical Location",
    "cdisc_submission_value": "PALM",
    "cdisc_synonyms": null
  },
  {
    "codelist_name": "Anatomical Location",
    "cdisc_submission_value": "PALMAR DIGITAL ARTERY",
    "cdisc_synonyms": null
  },
  {
    "codelist_name": "Anatomical Location",
    "cdisc_submission_value": "PALPEBRAL CONJUNCTIVA",
    "cdisc_synonyms": null
  },
  {
    "codelist_name": "Anatomical Location",
    "cdisc_submission_value": "PALPEBRAL FISSURE",
    "cdisc_synonyms": null
  },
  {
    "codelist_name": "Anatomical Location",
    "cdisc_submission_value": "PANCREAS",
    "cdisc_synonyms": null
  },
  {
    "codelist_name": "Anatomical Location",
    "cdisc_submission_value": "PANCREAS, NECK",
    "cdisc_synonyms": null
  },
  {
    "codelist_name": "Anatomical Location",
    "cdisc_submission_value": "PANCREATIC DUCT",
    "cdisc_synonyms": null
  },
  {
    "codelist_name": "Anatomical Location",
    "cdisc_submission_value": "PARACAVAL LYMPH NODE",
    "cdisc_synonyms": null
  },
  {
    "codelist_name": "Anatomical Location",
    "cdisc_submission_value": "PARACOLIC GUTTER",
    "cdisc_synonyms": null
  },
  {
    "codelist_name": "Anatomical Location",
    "cdisc_submission_value": "PARAESOPHAGEAL LYMPH NODE",
    "cdisc_synonyms": null
  },
  {
    "codelist_name": "Anatomical Location",
    "cdisc_submission_value": "PARALARYNGEAL LYMPH NODE",
    "cdisc_synonyms": null
  },
  {
    "codelist_name": "Anatomical Location",
    "cdisc_submission_value": "PARANASAL SINUS",
    "cdisc_synonyms": null
  },
  {
    "codelist_name": "Anatomical Location",
    "cdisc_submission_value": "PARAPHARYNGEAL LYMPH NODE",
    "cdisc_synonyms": null
  },
  {
    "codelist_name": "Anatomical Location",
    "cdisc_submission_value": "PARASPINAL REGION",
    "cdisc_synonyms": null
  },
  {
    "codelist_name": "Anatomical Location",
    "cdisc_submission_value": "PARASPINAL SOFT TISSUE",
    "cdisc_synonyms": null
  },
  {
    "codelist_name": "Anatomical Location",
    "cdisc_submission_value": "PARASYMPATHETIC GANGLIA",
    "cdisc_synonyms": null
  },
  {
    "codelist_name": "Anatomical Location",
    "cdisc_submission_value": "PARATHYROID GLAND",
    "cdisc_synonyms": null
  },
  {
    "codelist_name": "Anatomical Location",
    "cdisc_submission_value": "PARATRACHEAL LYMPH NODE",
    "cdisc_synonyms": null
  },
  {
    "codelist_name": "Anatomical Location",
    "cdisc_submission_value": "PARATRACHEAL LYMPH NODE, UPPER",
    "cdisc_synonyms": null
  },
  {
    "codelist_name": "Anatomical Location",
    "cdisc_submission_value": "PARIETAL BONE",
    "cdisc_synonyms": null
  },
  {
    "codelist_name": "Anatomical Location",
    "cdisc_submission_value": "PARIETAL CORTEX",
    "cdisc_synonyms": null
  },
  {
    "codelist_name": "Anatomical Location",
    "cdisc_submission_value": "PARIETAL PLEURA",
    "cdisc_synonyms": null
  },
  {
    "codelist_name": "Anatomical Location",
    "cdisc_submission_value": "PARIETO-OCCIPITAL REGION",
    "cdisc_synonyms": null
  },
  {
    "codelist_name": "Anatomical Location",
    "cdisc_submission_value": "PARIETO-TEMPORAL REGION",
    "cdisc_synonyms": null
  },
  {
    "codelist_name": "Anatomical Location",
    "cdisc_submission_value": "PAROTID GLAND",
    "cdisc_synonyms": null
  },
  {
    "codelist_name": "Anatomical Location",
    "cdisc_submission_value": "PARS COMPACTA",
    "cdisc_synonyms": null
  },
  {
    "codelist_name": "Anatomical Location",
    "cdisc_submission_value": "PATELLA",
    "cdisc_synonyms": null
  },
  {
    "codelist_name": "Anatomical Location",
    "cdisc_submission_value": "PATELLAR TENDON",
    "cdisc_synonyms": null
  },
  {
    "codelist_name": "Anatomical Location",
    "cdisc_submission_value": "PAW",
    "cdisc_synonyms": null
  },
  {
    "codelist_name": "Anatomical Location",
    "cdisc_submission_value": "PECTORAL LYMPH NODE",
    "cdisc_synonyms": null
  },
  {
    "codelist_name": "Anatomical Location",
    "cdisc_submission_value": "PECTORALIS MAJOR MUSCLE",
    "cdisc_synonyms": null
  },
  {
    "codelist_name": "Anatomical Location",
    "cdisc_submission_value": "PECTORALIS MINOR MUSCLE",
    "cdisc_synonyms": null
  },
  {
    "codelist_name": "Anatomical Location",
    "cdisc_submission_value": "PELVIC MUSCLE",
    "cdisc_synonyms": null
  },
  {
    "codelist_name": "Anatomical Location",
    "cdisc_submission_value": "PELVIC SIDEWALL",
    "cdisc_synonyms": null
  },
  {
    "codelist_name": "Anatomical Location",
    "cdisc_submission_value": "PELVIC SOFT TISSUE",
    "cdisc_synonyms": null
  },
  {
    "codelist_name": "Anatomical Location",
    "cdisc_submission_value": "PENILE ARTERY",
    "cdisc_synonyms": null
  },
  {
    "codelist_name": "Anatomical Location",
    "cdisc_submission_value": "PENIS",
    "cdisc_synonyms": null
  },
  {
    "codelist_name": "Anatomical Location",
    "cdisc_submission_value": "PENIS, BODY",
    "cdisc_synonyms": null
  },
  {
    "codelist_name": "Anatomical Location",
    "cdisc_submission_value": "PENIS, GLANS",
    "cdisc_synonyms": null
  },
  {
    "codelist_name": "Anatomical Location",
    "cdisc_submission_value": "PENIS, RADIX",
    "cdisc_synonyms": null
  },
  {
    "codelist_name": "Anatomical Location",
    "cdisc_submission_value": "PERI-ORBITAL SOFT TISSUE",
    "cdisc_synonyms": null
  },
  {
    "codelist_name": "Anatomical Location",
    "cdisc_submission_value": "PERIANAL REGION",
    "cdisc_synonyms": null
  },
  {
    "codelist_name": "Anatomical Location",
    "cdisc_submission_value": "PERICARDIAL CAVITY",
    "cdisc_synonyms": null
  },
  {
    "codelist_name": "Anatomical Location",
    "cdisc_submission_value": "PERICARDIAL LYMPH NODE",
    "cdisc_synonyms": null
  },
  {
    "codelist_name": "Anatomical Location",
    "cdisc_submission_value": "PERICARDIAL WALL",
    "cdisc_synonyms": null
  },
  {
    "codelist_name": "Anatomical Location",
    "cdisc_submission_value": "PERICARDIUM",
    "cdisc_synonyms": null
  },
  {
    "codelist_name": "Anatomical Location",
    "cdisc_submission_value": "PERIFACIAL LYMPH NODE",
    "cdisc_synonyms": null
  },
  {
    "codelist_name": "Anatomical Location",
    "cdisc_submission_value": "PERIHILAR LYMPH NODE",
    "cdisc_synonyms": null
  },
  {
    "codelist_name": "Anatomical Location",
    "cdisc_submission_value": "PERIMENINGEAL SPACE",
    "cdisc_synonyms": null
  },
  {
    "codelist_name": "Anatomical Location",
    "cdisc_submission_value": "PERIPANCREATIC LYMPH NODE",
    "cdisc_synonyms": null
  },
  {
    "codelist_name": "Anatomical Location",
    "cdisc_submission_value": "PERIPHERAL NERVE",
    "cdisc_synonyms": null
  },
  {
    "codelist_name": "Anatomical Location",
    "cdisc_submission_value": "PERIRECTAL LYMPH NODE",
    "cdisc_synonyms": null
  },
  {
    "codelist_name": "Anatomical Location",
    "cdisc_submission_value": "PERITONEAL CAVITY",
    "cdisc_synonyms": null
  },
  {
    "codelist_name": "Anatomical Location",
    "cdisc_submission_value": "PERITONEAL FLUID",
    "cdisc_synonyms": null
  },
  {
    "codelist_name": "Anatomical Location",
    "cdisc_submission_value": "PERITONEAL LYMPH NODE",
    "cdisc_synonyms": null
  },
  {
    "codelist_name": "Anatomical Location",
    "cdisc_submission_value": "PERITONEUM",
    "cdisc_synonyms": null
  },
  {
    "codelist_name": "Anatomical Location",
    "cdisc_submission_value": "PERIUMBILICAL REGION",
    "cdisc_synonyms": null
  },
  {
    "codelist_name": "Anatomical Location",
    "cdisc_submission_value": "PERIURETERAL REGION",
    "cdisc_synonyms": null
  },
  {
    "codelist_name": "Anatomical Location",
    "cdisc_submission_value": "PERIURETHRAL REGION",
    "cdisc_synonyms": null
  },
  {
    "codelist_name": "Anatomical Location",
    "cdisc_submission_value": "PERIVESICAL REGION",
    "cdisc_synonyms": null
  },
  {
    "codelist_name": "Anatomical Location",
    "cdisc_submission_value": "PERONEAL ARTERY",
    "cdisc_synonyms": null
  },
  {
    "codelist_name": "Anatomical Location",
    "cdisc_submission_value": "PERONEUS BREVIS MUSCLE",
    "cdisc_synonyms": null
  },
  {
    "codelist_name": "Anatomical Location",
    "cdisc_submission_value": "PERONEUS LONGUS MUSCLE",
    "cdisc_synonyms": null
  },
  {
    "codelist_name": "Anatomical Location",
    "cdisc_submission_value": "PES ANSERINE BURSA",
    "cdisc_synonyms": null
  },
  {
    "codelist_name": "Anatomical Location",
    "cdisc_submission_value": "PHARYNX",
    "cdisc_synonyms": null
  },
  {
    "codelist_name": "Anatomical Location",
    "cdisc_submission_value": "PHRENIC NERVE",
    "cdisc_synonyms": null
  },
  {
    "codelist_name": "Anatomical Location",
    "cdisc_submission_value": "PLACENTA",
    "cdisc_synonyms": null
  },
  {
    "codelist_name": "Anatomical Location",
    "cdisc_submission_value": "PLANTAR FLEXOR MUSCLES",
    "cdisc_synonyms": null
  },
  {
    "codelist_name": "Anatomical Location",
    "cdisc_submission_value": "PLEURA",
    "cdisc_synonyms": null
  },
  {
    "codelist_name": "Anatomical Location",
    "cdisc_submission_value": "PLEURAL CAVITY",
    "cdisc_synonyms": null
  },
  {
    "codelist_name": "Anatomical Location",
    "cdisc_submission_value": "PLEURAL FLUID",
    "cdisc_synonyms": null
  },
  {
    "codelist_name": "Anatomical Location",
    "cdisc_submission_value": "POPLITEAL ARTERY ABOVE KNEE",
    "cdisc_synonyms": null
  },
  {
    "codelist_name": "Anatomical Location",
    "cdisc_submission_value": "POPLITEAL ARTERY BELOW KNEE",
    "cdisc_synonyms": null
  },
  {
    "codelist_name": "Anatomical Location",
    "cdisc_submission_value": "POPLITEAL ARTERY",
    "cdisc_synonyms": null
  },
  {
    "codelist_name": "Anatomical Location",
    "cdisc_submission_value": "POPLITEAL FOSSA",
    "cdisc_synonyms": null
  },
  {
    "codelist_name": "Anatomical Location",
    "cdisc_submission_value": "POPLITEAL LYMPH NODE",
    "cdisc_synonyms": null
  },
  {
    "codelist_name": "Anatomical Location",
    "cdisc_submission_value": "POPLITEAL VEIN",
    "cdisc_synonyms": null
  },
  {
    "codelist_name": "Anatomical Location",
    "cdisc_submission_value": "PORTA HEPATIS LYMPH NODE",
    "cdisc_synonyms": null
  },
  {
    "codelist_name": "Anatomical Location",
    "cdisc_submission_value": "PORTAL VEIN BIFURCATION",
    "cdisc_synonyms": null
  },
  {
    "codelist_name": "Anatomical Location",
    "cdisc_submission_value": "PORTAL VEIN, LEFT BRANCH",
    "cdisc_synonyms": null
  },
  {
    "codelist_name": "Anatomical Location",
    "cdisc_submission_value": "PORTAL VEIN, RIGHT BRANCH",
    "cdisc_synonyms": null
  },
  {
    "codelist_name": "Anatomical Location",
    "cdisc_submission_value": "POSTCENTRAL GYRUS",
    "cdisc_synonyms": null
  },
  {
    "codelist_name": "Anatomical Location",
    "cdisc_submission_value": "POSTERIOR CERVICAL LYMPH NODE",
    "cdisc_synonyms": null
  },
  {
    "codelist_name": "Anatomical Location",
    "cdisc_submission_value": "POSTERIOR CINGULATE CORTEX",
    "cdisc_synonyms": null
  },
  {
    "codelist_name": "Anatomical Location",
    "cdisc_submission_value": "POSTERIOR POLE OF THE EYE",
    "cdisc_synonyms": null
  },
  {
    "codelist_name": "Anatomical Location",
    "cdisc_submission_value": "POSTERIOR SUPERIOR ILIAC SPINE",
    "cdisc_synonyms": null
  },
  {
    "codelist_name": "Anatomical Location",
    "cdisc_submission_value": "POSTERIOR TIBIAL ARTERY",
    "cdisc_synonyms": null
  },
  {
    "codelist_name": "Anatomical Location",
    "cdisc_submission_value": "POSTERIOR TIBIAL VEIN",
    "cdisc_synonyms": null
  },
  {
    "codelist_name": "Anatomical Location",
    "cdisc_submission_value": "POSTEROLATERAL SEGMENTAL ARTERY",
    "cdisc_synonyms": null
  },
  {
    "codelist_name": "Anatomical Location",
    "cdisc_submission_value": "PREAURICULAR LYMPH NODE",
    "cdisc_synonyms": null
  },
  {
    "codelist_name": "Anatomical Location",
    "cdisc_submission_value": "PRECENTRAL GYRUS",
    "cdisc_synonyms": null
  },
  {
    "codelist_name": "Anatomical Location",
    "cdisc_submission_value": "PRECUNEUS",
    "cdisc_synonyms": null
  },
  {
    "codelist_name": "Anatomical Location",
    "cdisc_submission_value": "PREFRONTAL CORTEX",
    "cdisc_synonyms": null
  },
  {
    "codelist_name": "Anatomical Location",
    "cdisc_submission_value": "PRELARYNGEAL LYMPH NODE",
    "cdisc_synonyms": null
  },
  {
    "codelist_name": "Anatomical Location",
    "cdisc_submission_value": "PREMAXILLA BONE",
    "cdisc_synonyms": null
  },
  {
    "codelist_name": "Anatomical Location",
    "cdisc_submission_value": "PREPATELLAR BURSA",
    "cdisc_synonyms": null
  },
  {
    "codelist_name": "Anatomical Location",
    "cdisc_submission_value": "PREPUTIAL GLAND",
    "cdisc_synonyms": null
  },
  {
    "codelist_name": "Anatomical Location",
    "cdisc_submission_value": "PRESACRAL LYMPH NODE",
    "cdisc_synonyms": null
  },
  {
    "codelist_name": "Anatomical Location",
    "cdisc_submission_value": "PRESACRAL SPACE",
    "cdisc_synonyms": null
  },
  {
    "codelist_name": "Anatomical Location",
    "cdisc_submission_value": "PRESPHENOID BONE",
    "cdisc_synonyms": null
  },
  {
    "codelist_name": "Anatomical Location",
    "cdisc_submission_value": "PRETRACHEAL LYMPH NODE",
    "cdisc_synonyms": null
  },
  {
    "codelist_name": "Anatomical Location",
    "cdisc_submission_value": "PREVESICAL LYMPH NODE",
    "cdisc_synonyms": null
  },
  {
    "codelist_name": "Anatomical Location",
    "cdisc_submission_value": "PRIMARY VISUAL CORTEX",
    "cdisc_synonyms": null
  },
  {
    "codelist_name": "Anatomical Location",
    "cdisc_submission_value": "PROCERUS MUSCLE",
    "cdisc_synonyms": null
  },
  {
    "codelist_name": "Anatomical Location",
    "cdisc_submission_value": "PROFUNDA FEMORIS ARTERY",
    "cdisc_synonyms": null
  },
  {
    "codelist_name": "Anatomical Location",
    "cdisc_submission_value": "PRONATOR QUADRATUS MUSCLE",
    "cdisc_synonyms": null
  },
  {
    "codelist_name": "Anatomical Location",
    "cdisc_submission_value": "PRONATOR TERES MUSCLE",
    "cdisc_synonyms": null
  },
  {
    "codelist_name": "Anatomical Location",
    "cdisc_submission_value": "PROSTATE BED",
    "cdisc_synonyms": null
  },
  {
    "codelist_name": "Anatomical Location",
    "cdisc_submission_value": "PROSTATE GLAND",
    "cdisc_synonyms": null
  },
  {
    "codelist_name": "Anatomical Location",
    "cdisc_submission_value": "PROXIMAL PHALANX 1 OF THE HAND",
    "cdisc_synonyms": null
  },
  {
    "codelist_name": "Anatomical Location",
    "cdisc_submission_value": "PROXIMAL PHALANX 2 OF THE HAND",
    "cdisc_synonyms": null
  },
  {
    "codelist_name": "Anatomical Location",
    "cdisc_submission_value": "PROXIMAL PHALANX 3 OF THE HAND",
    "cdisc_synonyms": null
  },
  {
    "codelist_name": "Anatomical Location",
    "cdisc_submission_value": "PROXIMAL PHALANX 4 OF THE HAND",
    "cdisc_synonyms": null
  },
  {
    "codelist_name": "Anatomical Location",
    "cdisc_submission_value": "PROXIMAL PHALANX 5 OF THE HAND",
    "cdisc_synonyms": null
  },
  {
    "codelist_name": "Anatomical Location",
    "cdisc_submission_value": "PROXIMAL URETHRA",
    "cdisc_synonyms": null
  },
  {
    "codelist_name": "Anatomical Location",
    "cdisc_submission_value": "PULMONARY ARTERY BRANCH",
    "cdisc_synonyms": null
  },
  {
    "codelist_name": "Anatomical Location",
    "cdisc_submission_value": "PULMONARY INTERLOBAR LYMPH NODE",
    "cdisc_synonyms": null
  },
  {
    "codelist_name": "Anatomical Location",
    "cdisc_submission_value": "PULMONARY LIGAMENT LYMPH NODE",
    "cdisc_synonyms": null
  },
  {
    "codelist_name": "Anatomical Location",
    "cdisc_submission_value": "PULMONARY LOBAR LYMPH NODE",
    "cdisc_synonyms": null
  },
  {
    "codelist_name": "Anatomical Location",
    "cdisc_submission_value": "PULMONARY LYMPH NODE",
    "cdisc_synonyms": null
  },
  {
    "codelist_name": "Anatomical Location",
    "cdisc_submission_value": "PULMONARY SEGMENTAL LYMPH NODE",
    "cdisc_synonyms": null
  },
  {
    "codelist_name": "Anatomical Location",
    "cdisc_submission_value": "PULMONARY SUBSEGMENTAL LYMPH NODE",
    "cdisc_synonyms": null
  },
  {
    "codelist_name": "Anatomical Location",
    "cdisc_submission_value": "PULMONARY VALVE",
    "cdisc_synonyms": null
  },
  {
    "codelist_name": "Anatomical Location",
    "cdisc_submission_value": "PULMONARY VEIN",
    "cdisc_synonyms": null
  },
  {
    "codelist_name": "Anatomical Location",
    "cdisc_submission_value": "PUPIL",
    "cdisc_synonyms": null
  },
  {
    "codelist_name": "Anatomical Location",
    "cdisc_submission_value": "PYLORUS",
    "cdisc_synonyms": null
  },
  {
    "codelist_name": "Anatomical Location",
    "cdisc_submission_value": "PYRAMIDAL TRACTS, BRAINSTEM",
    "cdisc_synonyms": null
  },
  {
    "codelist_name": "Anatomical Location",
    "cdisc_submission_value": "PYRAMIDAL TRACTS, INTERNAL CAPSULE",
    "cdisc_synonyms": null
  },
  {
    "codelist_name": "Anatomical Location",
    "cdisc_submission_value": "QUADRICEPS MUSCLE",
    "cdisc_synonyms": null
  },
  {
    "codelist_name": "Anatomical Location",
    "cdisc_submission_value": "RADIAL NERVE",
    "cdisc_synonyms": null
  },
  {
    "codelist_name": "Anatomical Location",
    "cdisc_submission_value": "RADIUS SHAFT",
    "cdisc_synonyms": null
  },
  {
    "codelist_name": "Anatomical Location",
    "cdisc_submission_value": "RADIUS",
    "cdisc_synonyms": null
  },
  {
    "codelist_name": "Anatomical Location",
    "cdisc_submission_value": "RADIUS-LUNATE JOINT",
    "cdisc_synonyms": null
  },
  {
    "codelist_name": "Anatomical Location",
    "cdisc_submission_value": "RAPHE",
    "cdisc_synonyms": null
  },
  {
    "codelist_name": "Anatomical Location",
    "cdisc_submission_value": "RECTO-UTERINE POUCH",
    "cdisc_synonyms": null
  },
  {
    "codelist_name": "Anatomical Location",
    "cdisc_submission_value": "RECTOSIGMOID JUNCTION",
    "cdisc_synonyms": null
  },
  {
    "codelist_name": "Anatomical Location",
    "cdisc_submission_value": "RECTOVAGINAL SPACE",
    "cdisc_synonyms": null
  },
  {
    "codelist_name": "Anatomical Location",
    "cdisc_submission_value": "RECTUM",
    "cdisc_synonyms": null
  },
  {
    "codelist_name": "Anatomical Location",
    "cdisc_submission_value": "RECTUM, LOWER THIRD",
    "cdisc_synonyms": null
  },
  {
    "codelist_name": "Anatomical Location",
    "cdisc_submission_value": "RECTUM, MIDDLE THIRD",
    "cdisc_synonyms": null
  },
  {
    "codelist_name": "Anatomical Location",
    "cdisc_submission_value": "RECTUM, UPPER THIRD",
    "cdisc_synonyms": null
  },
  {
    "codelist_name": "Anatomical Location",
    "cdisc_submission_value": "RECTUS FEMORIS MUSCLE",
    "cdisc_synonyms": null
  },
  {
    "codelist_name": "Anatomical Location",
    "cdisc_submission_value": "REGIONAL LYMPH NODE",
    "cdisc_synonyms": null
  },
  {
    "codelist_name": "Anatomical Location",
    "cdisc_submission_value": "RENAL ARTERY",
    "cdisc_synonyms": null
  },
  {
    "codelist_name": "Anatomical Location",
    "cdisc_submission_value": "RENAL FOSSA",
    "cdisc_synonyms": null
  },
  {
    "codelist_name": "Anatomical Location",
    "cdisc_submission_value": "RENAL PAPILLA",
    "cdisc_synonyms": null
  },
  {
    "codelist_name": "Anatomical Location",
    "cdisc_submission_value": "RENAL PELVIS",
    "cdisc_synonyms": null
  },
  {
    "codelist_name": "Anatomical Location",
    "cdisc_submission_value": "RENAL VEIN",
    "cdisc_synonyms": null
  },
  {
    "codelist_name": "Anatomical Location",
    "cdisc_submission_value": "RESPIRATORY SYSTEM",
    "cdisc_synonyms": null
  },
  {
    "codelist_name": "Anatomical Location",
    "cdisc_submission_value": "RETINAL ARTERY",
    "cdisc_synonyms": null
  },
  {
    "codelist_name": "Anatomical Location",
    "cdisc_submission_value": "RETINAL NERVE FIBER LAYER",
    "cdisc_synonyms": null
  },
  {
    "codelist_name": "Anatomical Location",
    "cdisc_submission_value": "RETINAL PIGMENTED EPITHELIAL LAYER",
    "cdisc_synonyms": null
  },
  {
    "codelist_name": "Anatomical Location",
    "cdisc_submission_value": "RETINAL VEIN",
    "cdisc_synonyms": null
  },
  {
    "codelist_name": "Anatomical Location",
    "cdisc_submission_value": "RETROCRURAL LYMPH NODE",
    "cdisc_synonyms": null
  },
  {
    "codelist_name": "Anatomical Location",
    "cdisc_submission_value": "RETROPERITONEAL LYMPH NODE",
    "cdisc_synonyms": null
  },
  {
    "codelist_name": "Anatomical Location",
    "cdisc_submission_value": "RETROPERITONEUM",
    "cdisc_synonyms": null
  },
  {
    "codelist_name": "Anatomical Location",
    "cdisc_submission_value": "RETROSTERNAL LYMPH NODE",
    "cdisc_synonyms": null
  },
  {
    "codelist_name": "Anatomical Location",
    "cdisc_submission_value": "RETROTRACHEAL LYMPH NODE",
    "cdisc_synonyms": null
  },
  {
    "codelist_name": "Anatomical Location",
    "cdisc_submission_value": "RHOMBOID MAJOR MUSCLE",
    "cdisc_synonyms": null
  },
  {
    "codelist_name": "Anatomical Location",
    "cdisc_submission_value": "RHOMBOID MINOR MUSCLE",
    "cdisc_synonyms": null
  },
  {
    "codelist_name": "Anatomical Location",
    "cdisc_submission_value": "RIB",
    "cdisc_synonyms": null
  },
  {
    "codelist_name": "Anatomical Location",
    "cdisc_submission_value": "RIGHT ATRIAL ENDOCARDIUM",
    "cdisc_synonyms": null
  },
  {
    "codelist_name": "Anatomical Location",
    "cdisc_submission_value": "RIGHT CORONARY ARTERY OSTIUM",
    "cdisc_synonyms": null
  },
  {
    "codelist_name": "Anatomical Location",
    "cdisc_submission_value": "RIGHT CORONARY ARTERY, RIGHT POSTERIOR DESCENDING, RIGHT POSTERIOLATERAL AND ACUTE MARGINAL BRANCHES",
    "cdisc_synonyms": null
  },
  {
    "codelist_name": "Anatomical Location",
    "cdisc_submission_value": "RIGHT VENTRICULAR BRANCH",
    "cdisc_synonyms": null
  },
  {
    "codelist_name": "Anatomical Location",
    "cdisc_submission_value": "RIGHT VENTRICULAR ENDOCARDIUM",
    "cdisc_synonyms": null
  },
  {
    "codelist_name": "Anatomical Location",
    "cdisc_submission_value": "ROUND LIGAMENT",
    "cdisc_synonyms": null
  },
  {
    "codelist_name": "Anatomical Location",
    "cdisc_submission_value": "SACRAL TUBEROSITY",
    "cdisc_synonyms": null
  },
  {
    "codelist_name": "Anatomical Location",
    "cdisc_submission_value": "SACRAL VERTEBRA",
    "cdisc_synonyms": null
  },
  {
    "codelist_name": "Anatomical Location",
    "cdisc_submission_value": "SALIVARY GLAND",
    "cdisc_synonyms": null
  },
  {
    "codelist_name": "Anatomical Location",
    "cdisc_submission_value": "SALIVARY GLAND, SUBLINGUAL",
    "cdisc_synonyms": null
  },
  {
    "codelist_name": "Anatomical Location",
    "cdisc_submission_value": "SARTORIUS MUSCLE",
    "cdisc_synonyms": null
  },
  {
    "codelist_name": "Anatomical Location",
    "cdisc_submission_value": "SCALP",
    "cdisc_synonyms": null
  },
  {
    "codelist_name": "Anatomical Location",
    "cdisc_submission_value": "SCAPHOID-CAPITATE JOINT",
    "cdisc_synonyms": null
  },
  {
    "codelist_name": "Anatomical Location",
    "cdisc_submission_value": "SCAPHOID-LUNATE JOINT",
    "cdisc_synonyms": null
  },
  {
    "codelist_name": "Anatomical Location",
    "cdisc_submission_value": "SCAPHOID-LUNATE-CAPITATE JOINT",
    "cdisc_synonyms": null
  },
  {
    "codelist_name": "Anatomical Location",
    "cdisc_submission_value": "SCAPHOID-RADIUS JOINT",
    "cdisc_synonyms": null
  },
  {
    "codelist_name": "Anatomical Location",
    "cdisc_submission_value": "SCAPHOID-TRAPEZIUM JOINT",
    "cdisc_synonyms": null
  },
  {
    "codelist_name": "Anatomical Location",
    "cdisc_submission_value": "SCAPHOID-TRAPEZOID JOINT",
    "cdisc_synonyms": null
  },
  {
    "codelist_name": "Anatomical Location",
    "cdisc_submission_value": "SCIATIC NERVE",
    "cdisc_synonyms": null
  },
  {
    "codelist_name": "Anatomical Location",
    "cdisc_submission_value": "SCLERA",
    "cdisc_synonyms": null
  },
  {
    "codelist_name": "Anatomical Location",
    "cdisc_submission_value": "SCROTUM",
    "cdisc_synonyms": null
  },
  {
    "codelist_name": "Anatomical Location",
    "cdisc_submission_value": "SEBACEOUS GLAND",
    "cdisc_synonyms": null
  },
  {
    "codelist_name": "Anatomical Location",
    "cdisc_submission_value": "SEMIMEMBRANOSUS MUSCLE",
    "cdisc_synonyms": null
  },
  {
    "codelist_name": "Anatomical Location",
    "cdisc_submission_value": "SEMITENDINOSUS MUSCLE",
    "cdisc_synonyms": null
  },
  {
    "codelist_name": "Anatomical Location",
    "cdisc_submission_value": "SENSORIMOTOR CORTEX",
    "cdisc_synonyms": null
  },
  {
    "codelist_name": "Anatomical Location",
    "cdisc_submission_value": "SERRATUS ANTERIOR MUSCLE",
    "cdisc_synonyms": null
  },
  {
    "codelist_name": "Anatomical Location",
    "cdisc_submission_value": "SHIN",
    "cdisc_synonyms": null
  },
  {
    "codelist_name": "Anatomical Location",
    "cdisc_submission_value": "SHOULDER ABDUCTOR MUSCLES",
    "cdisc_synonyms": null
  },
  {
    "codelist_name": "Anatomical Location",
    "cdisc_submission_value": "SHOULDER EXTERNAL ROTATOR MUSCLES",
    "cdisc_synonyms": null
  },
  {
    "codelist_name": "Anatomical Location",
    "cdisc_submission_value": "SHOULDER JOINT TENDONS",
    "cdisc_synonyms": null
  },
  {
    "codelist_name": "Anatomical Location",
    "cdisc_submission_value": "SHOULDER MUSCLE",
    "cdisc_synonyms": null
  },
  {
    "codelist_name": "Anatomical Location",
    "cdisc_submission_value": "SHOULDER SOFT TISSUE",
    "cdisc_synonyms": null
  },
  {
    "codelist_name": "Anatomical Location",
    "cdisc_submission_value": "SKIN ABOVE THE EYEBROW",
    "cdisc_synonyms": null
  },
  {
    "codelist_name": "Anatomical Location",
    "cdisc_submission_value": "SKIN AROUND THE EYE",
    "cdisc_synonyms": null
  },
  {
    "codelist_name": "Anatomical Location",
    "cdisc_submission_value": "SKIN AROUND THE MOUTH",
    "cdisc_synonyms": null
  },
  {
    "codelist_name": "Anatomical Location",
    "cdisc_submission_value": "SKIN BETWEEN EYEBROWS",
    "cdisc_synonyms": null
  },
  {
    "codelist_name": "Anatomical Location",
    "cdisc_submission_value": "SKIN FOLD",
    "cdisc_synonyms": null
  },
  {
    "codelist_name": "Anatomical Location",
    "cdisc_submission_value": "SKIN OF THE AXILLA",
    "cdisc_synonyms": null
  },
  {
    "codelist_name": "Anatomical Location",
    "cdisc_submission_value": "SKIN OF THE BACK",
    "cdisc_synonyms": null
  },
  {
    "codelist_name": "Anatomical Location",
    "cdisc_submission_value": "SKIN OF THE BENDING JOINT",
    "cdisc_synonyms": null
  },
  {
    "codelist_name": "Anatomical Location",
    "cdisc_submission_value": "SKIN OF THE BUTTOCK",
    "cdisc_synonyms": null
  },
  {
    "codelist_name": "Anatomical Location",
    "cdisc_submission_value": "SKIN OF THE CHEST",
    "cdisc_synonyms": null
  },
  {
    "codelist_name": "Anatomical Location",
    "cdisc_submission_value": "SKIN OF THE CHIN",
    "cdisc_synonyms": null
  },
  {
    "codelist_name": "Anatomical Location",
    "cdisc_submission_value": "SKIN OF THE EAR",
    "cdisc_synonyms": null
  },
  {
    "codelist_name": "Anatomical Location",
    "cdisc_submission_value": "SKIN OF THE ELBOW",
    "cdisc_synonyms": null
  },
  {
    "codelist_name": "Anatomical Location",
    "cdisc_submission_value": "SKIN OF THE FACE",
    "cdisc_synonyms": null
  },
  {
    "codelist_name": "Anatomical Location",
    "cdisc_submission_value": "SKIN OF THE FINGER",
    "cdisc_synonyms": null
  },
  {
    "codelist_name": "Anatomical Location",
    "cdisc_submission_value": "SKIN OF THE FOOT",
    "cdisc_synonyms": null
  },
  {
    "codelist_name": "Anatomical Location",
    "cdisc_submission_value": "SKIN OF THE FOREARM",
    "cdisc_synonyms": null
  },
  {
    "codelist_name": "Anatomical Location",
    "cdisc_submission_value": "SKIN OF THE HAND",
    "cdisc_synonyms": null
  },
  {
    "codelist_name": "Anatomical Location",
    "cdisc_submission_value": "SKIN OF THE HEAD",
    "cdisc_synonyms": null
  },
  {
    "codelist_name": "Anatomical Location",
    "cdisc_submission_value": "SKIN OF THE INFRASCAPULAR REGION",
    "cdisc_synonyms": null
  },
  {
    "codelist_name": "Anatomical Location",
    "cdisc_submission_value": "SKIN OF THE INGUINAL REGION",
    "cdisc_synonyms": null
  },
  {
    "codelist_name": "Anatomical Location",
    "cdisc_submission_value": "SKIN OF THE KNEE",
    "cdisc_synonyms": null
  },
  {
    "codelist_name": "Anatomical Location",
    "cdisc_submission_value": "SKIN OF THE LIP",
    "cdisc_synonyms": null
  },
  {
    "codelist_name": "Anatomical Location",
    "cdisc_submission_value": "SKIN OF THE LOWER LIMB",
    "cdisc_synonyms": null
  },
  {
    "codelist_name": "Anatomical Location",
    "cdisc_submission_value": "SKIN OF THE NECK",
    "cdisc_synonyms": null
  },
  {
    "codelist_name": "Anatomical Location",
    "cdisc_submission_value": "SKIN OF THE OUTER CANTHUS OF THE EYE",
    "cdisc_synonyms": null
  },
  {
    "codelist_name": "Anatomical Location",
    "cdisc_submission_value": "SKIN OF THE PALM",
    "cdisc_synonyms": null
  },
  {
    "codelist_name": "Anatomical Location",
    "cdisc_submission_value": "SKIN OF THE SOLE",
    "cdisc_synonyms": null
  },
  {
    "codelist_name": "Anatomical Location",
    "cdisc_submission_value": "SKIN OF THE THIGH",
    "cdisc_synonyms": null
  },
  {
    "codelist_name": "Anatomical Location",
    "cdisc_submission_value": "SKIN OF THE UPPER LIMB",
    "cdisc_synonyms": null
  },
  {
    "codelist_name": "Anatomical Location",
    "cdisc_submission_value": "SMALL INTESTINE",
    "cdisc_synonyms": null
  },
  {
    "codelist_name": "Anatomical Location",
    "cdisc_submission_value": "SMALL SAPHENOUS VEIN",
    "cdisc_synonyms": null
  },
  {
    "codelist_name": "Anatomical Location",
    "cdisc_submission_value": "SOFT PALATE",
    "cdisc_synonyms": null
  },
  {
    "codelist_name": "Anatomical Location",
    "cdisc_submission_value": "SOLE",
    "cdisc_synonyms": null
  },
  {
    "codelist_name": "Anatomical Location",
    "cdisc_submission_value": "SOLEUS MUSCLE",
    "cdisc_synonyms": null
  },
  {
    "codelist_name": "Anatomical Location",
    "cdisc_submission_value": "SPHENOID BONE",
    "cdisc_synonyms": null
  },
  {
    "codelist_name": "Anatomical Location",
    "cdisc_submission_value": "SPHENOID SINUS",
    "cdisc_synonyms": null
  },
  {
    "codelist_name": "Anatomical Location",
    "cdisc_submission_value": "SPINAL CORD PARENCHYMA",
    "cdisc_synonyms": null
  },
  {
    "codelist_name": "Anatomical Location",
    "cdisc_submission_value": "SPINAL CORD, CERVICAL",
    "cdisc_synonyms": null
  },
  {
    "codelist_name": "Anatomical Location",
    "cdisc_submission_value": "SPINOUS PROCESS",
    "cdisc_synonyms": null
  },
  {
    "codelist_name": "Anatomical Location",
    "cdisc_submission_value": "SPLEEN",
    "cdisc_synonyms": null
  },
  {
    "codelist_name": "Anatomical Location",
    "cdisc_submission_value": "SPLENIC ARTERY",
    "cdisc_synonyms": null
  },
  {
    "codelist_name": "Anatomical Location",
    "cdisc_submission_value": "SPLENIC HILAR LYMPH NODE",
    "cdisc_synonyms": null
  },
  {
    "codelist_name": "Anatomical Location",
    "cdisc_submission_value": "SPLENIC LYMPH NODE",
    "cdisc_synonyms": null
  },
  {
    "codelist_name": "Anatomical Location",
    "cdisc_submission_value": "SPLENIC VEIN",
    "cdisc_synonyms": null
  },
  {
    "codelist_name": "Anatomical Location",
    "cdisc_submission_value": "STERNEBRA",
    "cdisc_synonyms": null
  },
  {
    "codelist_name": "Anatomical Location",
    "cdisc_submission_value": "STOMACH",
    "cdisc_synonyms": null
  },
  {
    "codelist_name": "Anatomical Location",
    "cdisc_submission_value": "STRIATUM",
    "cdisc_synonyms": null
  },
  {
    "codelist_name": "Anatomical Location",
    "cdisc_submission_value": "SUBACROMIAL BURSA",
    "cdisc_synonyms": null
  },
  {
    "codelist_name": "Anatomical Location",
    "cdisc_submission_value": "SUBAORTIC LYMPH NODE",
    "cdisc_synonyms": null
  },
  {
    "codelist_name": "Anatomical Location",
    "cdisc_submission_value": "SUBCARINAL LYMPH NODE",
    "cdisc_synonyms": null
  },
  {
    "codelist_name": "Anatomical Location",
    "cdisc_submission_value": "SUBCLAVIAN ARTERY",
    "cdisc_synonyms": null
  },
  {
    "codelist_name": "Anatomical Location",
    "cdisc_submission_value": "SUBCLAVIAN VEIN",
    "cdisc_synonyms": null
  },
  {
    "codelist_name": "Anatomical Location",
    "cdisc_submission_value": "SUBDURAL SPACE",
    "cdisc_synonyms": null
  },
  {
    "codelist_name": "Anatomical Location",
    "cdisc_submission_value": "SUBLINGUAL REGION",
    "cdisc_synonyms": null
  },
  {
    "codelist_name": "Anatomical Location",
    "cdisc_submission_value": "SUBMANDIBULAR REGION",
    "cdisc_synonyms": null
  },
  {
    "codelist_name": "Anatomical Location",
    "cdisc_submission_value": "SUBMENTAL REGION",
    "cdisc_synonyms": null
  },
  {
    "codelist_name": "Anatomical Location",
    "cdisc_submission_value": "SUBRETINAL SPACE",
    "cdisc_synonyms": null
  },
  {
    "codelist_name": "Anatomical Location",
    "cdisc_submission_value": "SUBSCAPULARIS MUSCLE",
    "cdisc_synonyms": null
  },
  {
    "codelist_name": "Anatomical Location",
    "cdisc_submission_value": "SUBSCAPULARIS TENDON",
    "cdisc_synonyms": null
  },
  {
    "codelist_name": "Anatomical Location",
    "cdisc_submission_value": "SUBSTANTIA NIGRA",
    "cdisc_synonyms": null
  },
  {
    "codelist_name": "Anatomical Location",
    "cdisc_submission_value": "SUPERFICIAL FEMORAL ARTERY",
    "cdisc_synonyms": null
  },
  {
    "codelist_name": "Anatomical Location",
    "cdisc_submission_value": "SUPERFICIAL LYMPH NODE",
    "cdisc_synonyms": null
  },
  {
    "codelist_name": "Anatomical Location",
    "cdisc_submission_value": "SUPERFICIAL VEIN",
    "cdisc_synonyms": null
  },
  {
    "codelist_name": "Anatomical Location",
    "cdisc_submission_value": "SUPERIOR FRONTAL GYRUS",
    "cdisc_synonyms": null
  },
  {
    "codelist_name": "Anatomical Location",
    "cdisc_submission_value": "SUPERIOR MEDIASTINAL LYMPH NODE LEVEL VII",
    "cdisc_synonyms": null
  },
  {
    "codelist_name": "Anatomical Location",
    "cdisc_submission_value": "SUPERIOR PUBIC RAMUS",
    "cdisc_synonyms": null
  },
  {
    "codelist_name": "Anatomical Location",
    "cdisc_submission_value": "SUPERIOR SAGITTAL SINUS",
    "cdisc_synonyms": null
  },
  {
    "codelist_name": "Anatomical Location",
    "cdisc_submission_value": "SUPERIOR TEMPORAL GYRUS",
    "cdisc_synonyms": null
  },
  {
    "codelist_name": "Anatomical Location",
    "cdisc_submission_value": "SUPINATOR MUSCLE",
    "cdisc_synonyms": null
  },
  {
    "codelist_name": "Anatomical Location",
    "cdisc_submission_value": "SUPRACLAVICULAR FOSSA",
    "cdisc_synonyms": null
  },
  {
    "codelist_name": "Anatomical Location",
    "cdisc_submission_value": "SUPRAGLOTTIS",
    "cdisc_synonyms": null
  },
  {
    "codelist_name": "Anatomical Location",
    "cdisc_submission_value": "SUPRAMARGINAL GYRUS",
    "cdisc_synonyms": null
  },
  {
    "codelist_name": "Anatomical Location",
    "cdisc_submission_value": "SUPRAOCCIPITAL BONE",
    "cdisc_synonyms": null
  },
  {
    "codelist_name": "Anatomical Location",
    "cdisc_submission_value": "SUPRAPUBIC REGION",
    "cdisc_synonyms": null
  },
  {
    "codelist_name": "Anatomical Location",
    "cdisc_submission_value": "SUPRARENAL AORTA",
    "cdisc_synonyms": null
  },
  {
    "codelist_name": "Anatomical Location",
    "cdisc_submission_value": "SUPRASPINATUS MUSCLE",
    "cdisc_synonyms": null
  },
  {
    "codelist_name": "Anatomical Location",
    "cdisc_submission_value": "SUPRASPINATUS TENDON",
    "cdisc_synonyms": null
  },
  {
    "codelist_name": "Anatomical Location",
    "cdisc_submission_value": "SUPRATENTORIAL BRAIN",
    "cdisc_synonyms": null
  },
  {
    "codelist_name": "Anatomical Location",
    "cdisc_submission_value": "SURAL NERVE",
    "cdisc_synonyms": null
  },
  {
    "codelist_name": "Anatomical Location",
    "cdisc_submission_value": "SUTURE",
    "cdisc_synonyms": null
  },
  {
    "codelist_name": "Anatomical Location",
    "cdisc_submission_value": "SYMPATHETIC GANGLIA",
    "cdisc_synonyms": null
  },
  {
    "codelist_name": "Anatomical Location",
    "cdisc_submission_value": "TAIL",
    "cdisc_synonyms": null
  },
  {
    "codelist_name": "Anatomical Location",
    "cdisc_submission_value": "TARSAL JOINT",
    "cdisc_synonyms": null
  },
  {
    "codelist_name": "Anatomical Location",
    "cdisc_submission_value": "TECTUM MESENCEPHALI",
    "cdisc_synonyms": null
  },
  {
    "codelist_name": "Anatomical Location",
    "cdisc_submission_value": "TEMPLE",
    "cdisc_synonyms": null
  },
  {
    "codelist_name": "Anatomical Location",
    "cdisc_submission_value": "TEMPORAL ARTERY",
    "cdisc_synonyms": null
  },
  {
    "codelist_name": "Anatomical Location",
    "cdisc_submission_value": "TEMPORAL CORTEX",
    "cdisc_synonyms": null
  },
  {
    "codelist_name": "Anatomical Location",
    "cdisc_submission_value": "TEMPORAL LOBE",
    "cdisc_synonyms": null
  },
  {
    "codelist_name": "Anatomical Location",
    "cdisc_submission_value": "TENDON",
    "cdisc_synonyms": null
  },
  {
    "codelist_name": "Anatomical Location",
    "cdisc_submission_value": "TENTORIUM CEREBELLI",
    "cdisc_synonyms": null
  },
  {
    "codelist_name": "Anatomical Location",
    "cdisc_submission_value": "TERES MINOR TENDON",
    "cdisc_synonyms": null
  },
  {
    "codelist_name": "Anatomical Location",
    "cdisc_submission_value": "THALAMUS",
    "cdisc_synonyms": null
  },
  {
    "codelist_name": "Anatomical Location",
    "cdisc_submission_value": "THORACIC AORTA",
    "cdisc_synonyms": null
  },
  {
    "codelist_name": "Anatomical Location",
    "cdisc_submission_value": "THORACIC ARTERY",
    "cdisc_synonyms": null
  },
  {
    "codelist_name": "Anatomical Location",
    "cdisc_submission_value": "THORACIC CAVITY",
    "cdisc_synonyms": null
  },
  {
    "codelist_name": "Anatomical Location",
    "cdisc_submission_value": "THORACIC LYMPH NODE",
    "cdisc_synonyms": null
  },
  {
    "codelist_name": "Anatomical Location",
    "cdisc_submission_value": "THORACIC SOFT TISSUE",
    "cdisc_synonyms": null
  },
  {
    "codelist_name": "Anatomical Location",
    "cdisc_submission_value": "THORACIC SPINE",
    "cdisc_synonyms": null
  },
  {
    "codelist_name": "Anatomical Location",
    "cdisc_submission_value": "THYROID GLAND ISTHMUS",
    "cdisc_synonyms": null
  },
  {
    "codelist_name": "Anatomical Location",
    "cdisc_submission_value": "THYROID GLAND",
    "cdisc_synonyms": null
  },
  {
    "codelist_name": "Anatomical Location",
    "cdisc_submission_value": "TIBIA SHAFT",
    "cdisc_synonyms": null
  },
  {
    "codelist_name": "Anatomical Location",
    "cdisc_submission_value": "TIBIA",
    "cdisc_synonyms": null
  },
  {
    "codelist_name": "Anatomical Location",
    "cdisc_submission_value": "TIBIAL NERVE",
    "cdisc_synonyms": null
  },
  {
    "codelist_name": "Anatomical Location",
    "cdisc_submission_value": "TIBIAL-CRURAL PERIPHERAL ARTERY",
    "cdisc_synonyms": null
  },
  {
    "codelist_name": "Anatomical Location",
    "cdisc_submission_value": "TIBIALIS ANTERIOR MUSCLE",
    "cdisc_synonyms": null
  },
  {
    "codelist_name": "Anatomical Location",
    "cdisc_submission_value": "TIBIALIS POSTERIOR MUSCLE",
    "cdisc_synonyms": null
  },
  {
    "codelist_name": "Anatomical Location",
    "cdisc_submission_value": "TIBIO-PERONEAL TRUNK",
    "cdisc_synonyms": null
  },
  {
    "codelist_name": "Anatomical Location",
    "cdisc_submission_value": "TIBIOTARSAL JOINT",
    "cdisc_synonyms": null
  },
  {
    "codelist_name": "Anatomical Location",
    "cdisc_submission_value": "TONGUE",
    "cdisc_synonyms": null
  },
  {
    "codelist_name": "Anatomical Location",
    "cdisc_submission_value": "TONSIL",
    "cdisc_synonyms": null
  },
  {
    "codelist_name": "Anatomical Location",
    "cdisc_submission_value": "TOOTH",
    "cdisc_synonyms": null
  },
  {
    "codelist_name": "Anatomical Location",
    "cdisc_submission_value": "TRACHEOBRONCHIAL TREE",
    "cdisc_synonyms": null
  },
  {
    "codelist_name": "Anatomical Location",
    "cdisc_submission_value": "TRAPEZIUM-TRAPEZOID JOINT",
    "cdisc_synonyms": null
  },
  {
    "codelist_name": "Anatomical Location",
    "cdisc_submission_value": "TRAPEZOID-CAPITATE JOINT",
    "cdisc_synonyms": null
  },
  {
    "codelist_name": "Anatomical Location",
    "cdisc_submission_value": "TRICEPS BRACHII MUSCLE",
    "cdisc_synonyms": null
  },
  {
    "codelist_name": "Anatomical Location",
    "cdisc_submission_value": "TRICUSPID VALVE ANNULUS",
    "cdisc_synonyms": null
  },
  {
    "codelist_name": "Anatomical Location",
    "cdisc_submission_value": "TRICUSPID VALVE, ANTERIOR CUSP",
    "cdisc_synonyms": null
  },
  {
    "codelist_name": "Anatomical Location",
    "cdisc_submission_value": "TRICUSPID VALVE, POSTERIOR ANNULUS",
    "cdisc_synonyms": null
  },
  {
    "codelist_name": "Anatomical Location",
    "cdisc_submission_value": "TRICUSPID VALVE, POSTERIOR CUSP",
    "cdisc_synonyms": null
  },
  {
    "codelist_name": "Anatomical Location",
    "cdisc_submission_value": "TRICUSPID VALVE, SEPTAL CUSP",
    "cdisc_synonyms": null
  },
  {
    "codelist_name": "Anatomical Location",
    "cdisc_submission_value": "TROCHANTERIC BURSA",
    "cdisc_synonyms": null
  },
  {
    "codelist_name": "Anatomical Location",
    "cdisc_submission_value": "ULNA SHAFT",
    "cdisc_synonyms": null
  },
  {
    "codelist_name": "Anatomical Location",
    "cdisc_submission_value": "ULNA",
    "cdisc_synonyms": null
  },
  {
    "codelist_name": "Anatomical Location",
    "cdisc_submission_value": "ULNAR ARTERY",
    "cdisc_synonyms": null
  },
  {
    "codelist_name": "Anatomical Location",
    "cdisc_submission_value": "ULNAR NERVE",
    "cdisc_synonyms": null
  },
  {
    "codelist_name": "Anatomical Location",
    "cdisc_submission_value": "UMBILICAL ARTERY",
    "cdisc_synonyms": null
  },
  {
    "codelist_name": "Anatomical Location",
    "cdisc_submission_value": "UMBILICAL CORD",
    "cdisc_synonyms": null
  },
  {
    "codelist_name": "Anatomical Location",
    "cdisc_submission_value": "UMBILICAL VEIN",
    "cdisc_synonyms": null
  },
  {
    "codelist_name": "Anatomical Location",
    "cdisc_submission_value": "UPPER CERVICAL LYMPH NODE",
    "cdisc_synonyms": null
  },
  {
    "codelist_name": "Anatomical Location",
    "cdisc_submission_value": "UPPER LIMB SOFT TISSUE",
    "cdisc_synonyms": null
  },
  {
    "codelist_name": "Anatomical Location",
    "cdisc_submission_value": "UPPER RESPIRATORY SYSTEM",
    "cdisc_synonyms": null
  },
  {
    "codelist_name": "Anatomical Location",
    "cdisc_submission_value": "URACHAL TRACT",
    "cdisc_synonyms": null
  },
  {
    "codelist_name": "Anatomical Location",
    "cdisc_submission_value": "URETER",
    "cdisc_synonyms": null
  },
  {
    "codelist_name": "Anatomical Location",
    "cdisc_submission_value": "URETERIC ORIFICE",
    "cdisc_synonyms": null
  },
  {
    "codelist_name": "Anatomical Location",
    "cdisc_submission_value": "URETHRA",
    "cdisc_synonyms": null
  },
  {
    "codelist_name": "Anatomical Location",
    "cdisc_submission_value": "URETHRAL SPHINCTER",
    "cdisc_synonyms": null
  },
  {
    "codelist_name": "Anatomical Location",
    "cdisc_submission_value": "UTERINE ARTERY",
    "cdisc_synonyms": null
  },
  {
    "codelist_name": "Anatomical Location",
    "cdisc_submission_value": "UTERINE HORN",
    "cdisc_synonyms": null
  },
  {
    "codelist_name": "Anatomical Location",
    "cdisc_submission_value": "UTERINE LIGAMENT",
    "cdisc_synonyms": null
  },
  {
    "codelist_name": "Anatomical Location",
    "cdisc_submission_value": "VAGINAL WALL",
    "cdisc_synonyms": null
  },
  {
    "codelist_name": "Anatomical Location",
    "cdisc_submission_value": "VASTUS INTERMEDIUS MUSCLE",
    "cdisc_synonyms": null
  },
  {
    "codelist_name": "Anatomical Location",
    "cdisc_submission_value": "VASTUS LATERALIS MUSCLE",
    "cdisc_synonyms": null
  },
  {
    "codelist_name": "Anatomical Location",
    "cdisc_submission_value": "VASTUS MEDIALIS MUSCLE",
    "cdisc_synonyms": null
  },
  {
    "codelist_name": "Anatomical Location",
    "cdisc_submission_value": "VENA CAVA",
    "cdisc_synonyms": null
  },
  {
    "codelist_name": "Anatomical Location",
    "cdisc_submission_value": "VENOUS SINUS",
    "cdisc_synonyms": null
  },
  {
    "codelist_name": "Anatomical Location",
    "cdisc_submission_value": "VERTEBRAL ARTERY",
    "cdisc_synonyms": null
  },
  {
    "codelist_name": "Anatomical Location",
    "cdisc_submission_value": "VULVA",
    "cdisc_synonyms": null
  },
  {
    "codelist_name": "Anatomical Location",
    "cdisc_submission_value": "VULVOVAGINAL REGION",
    "cdisc_synonyms": null
  },
  {
    "codelist_name": "Anatomical Location",
    "cdisc_submission_value": "WALDEYER'S TONSILLAR RING",
    "cdisc_synonyms": null
  },
  {
    "codelist_name": "Anatomical Location",
    "cdisc_submission_value": "WARDS TRIANGLE",
    "cdisc_synonyms": null
  },
  {
    "codelist_name": "Anatomical Location",
    "cdisc_submission_value": "WRIST JOINT EXTENSOR MUSCLES",
    "cdisc_synonyms": null
  },
  {
    "codelist_name": "Anatomical Location",
    "cdisc_submission_value": "WRIST JOINT EXTENSOR TENDONS",
    "cdisc_synonyms": null
  },
  {
    "codelist_name": "Anatomical Location",
    "cdisc_submission_value": "WRIST JOINT FLEXOR MUSCLES",
    "cdisc_synonyms": null
  },
  {
    "codelist_name": "Anatomical Location",
    "cdisc_submission_value": "WRIST JOINT FLEXOR TENDONS",
    "cdisc_synonyms": null
  },
  {
    "codelist_name": "Anti-Viral Outcome of Treatment",
    "cdisc_submission_value": "VIRAL RELAPSE",
    "cdisc_synonyms": null
  },
  {
    "codelist_name": "Anti-Viral Outcome of Treatment",
    "cdisc_submission_value": "VIROLOGIC END OF TREATMENT RESPONSE",
    "cdisc_synonyms": null
  },
  {
    "codelist_name": "Anti-Viral Outcome of Treatment",
    "cdisc_submission_value": "VIROLOGIC FAILURE",
    "cdisc_synonyms": null
  },
  {
    "codelist_name": "Anti-Viral Outcome of Treatment",
    "cdisc_submission_value": "VIROLOGIC NON-RESPONSE",
    "cdisc_synonyms": null
  },
  {
    "codelist_name": "Anti-Viral Outcome of Treatment",
    "cdisc_submission_value": "VIROLOGIC NULL-RESPONSE",
    "cdisc_synonyms": null
  },
  {
    "codelist_name": "Anti-Viral Outcome of Treatment",
    "cdisc_submission_value": "VIROLOGIC PARTIAL RESPONSE",
    "cdisc_synonyms": null
  },
  {
    "codelist_name": "Arm Null Reason",
    "cdisc_submission_value": "ASSIGNED, NOT TREATED",
    "cdisc_synonyms": null
  },
  {
    "codelist_name": "Arm Null Reason",
    "cdisc_submission_value": "NOT ASSIGNED",
    "cdisc_synonyms": null
  },
  {
    "codelist_name": "Arm Null Reason",
    "cdisc_submission_value": "SCREENING NOT COMPLETED",
    "cdisc_synonyms": null
  },
  {
    "codelist_name": "Arm Null Reason",
    "cdisc_submission_value": "UNPLANNED TREATMENT",
    "cdisc_synonyms": null
  },
  {
    "codelist_name": "Binding Agent for Immunogenicity Tests",
    "cdisc_submission_value": "ADRENAL AUTOANTIGENS",
    "cdisc_synonyms": null
  },
  {
    "codelist_name": "Binding Agent for Immunogenicity Tests",
    "cdisc_submission_value": "BORDETELLA PERTUSSIS FIMBRIAE MIX ANTIGENS",
    "cdisc_synonyms": null
  },
  {
    "codelist_name": "Binding Agent for Immunogenicity Tests",
    "cdisc_submission_value": "CARDIOLIPIN",
    "cdisc_synonyms": null
  },
  {
    "codelist_name": "Binding Agent for Immunogenicity Tests",
    "cdisc_submission_value": "CASEIN",
    "cdisc_synonyms": null
  },
  {
    "codelist_name": "Binding Agent for Immunogenicity Tests",
    "cdisc_submission_value": "CATHEPSIN",
    "cdisc_synonyms": null
  },
  {
    "codelist_name": "Binding Agent for Immunogenicity Tests",
    "cdisc_submission_value": "CHROMATIN",
    "cdisc_synonyms": null
  },
  {
    "codelist_name": "Binding Agent for Immunogenicity Tests",
    "cdisc_submission_value": "CLOSTRIDIUM TETANI TOXOID",
    "cdisc_synonyms": null
  },
  {
    "codelist_name": "Binding Agent for Immunogenicity Tests",
    "cdisc_submission_value": "COMPLEMENT C1Q",
    "cdisc_synonyms": null
  },
  {
    "codelist_name": "Binding Agent for Immunogenicity Tests",
    "cdisc_submission_value": "COMPLEMENT C3D",
    "cdisc_synonyms": null
  },
  {
    "codelist_name": "Binding Agent for Immunogenicity Tests",
    "cdisc_submission_value": "CORYNEBACTERIUM DIPHTHERIAE TOXOID",
    "cdisc_synonyms": null
  },
  {
    "codelist_name": "Binding Agent for Immunogenicity Tests",
    "cdisc_submission_value": "DESMOGLEIN 1",
    "cdisc_synonyms": null
  },
  {
    "codelist_name": "Binding Agent for Immunogenicity Tests",
    "cdisc_submission_value": "DESMOGLEIN 3",
    "cdisc_synonyms": null
  },
  {
    "codelist_name": "Binding Agent for Immunogenicity Tests",
    "cdisc_submission_value": "ENDOMETRIAL AUTOANTIGENS",
    "cdisc_synonyms": null
  },
  {
    "codelist_name": "Binding Agent for Immunogenicity Tests",
    "cdisc_submission_value": "ENDOMYSIAL AUTOANTIGENS",
    "cdisc_synonyms": null
  },
  {
    "codelist_name": "Binding Agent for Immunogenicity Tests",
    "cdisc_submission_value": "GANGLIOSIDE GD1A",
    "cdisc_synonyms": null
  },
  {
    "codelist_name": "Binding Agent for Immunogenicity Tests",
    "cdisc_submission_value": "GANGLIOSIDE GD1B",
    "cdisc_synonyms": null
  },
  {
    "codelist_name": "Binding Agent for Immunogenicity Tests",
    "cdisc_submission_value": "GANGLIOSIDE GD2",
    "cdisc_synonyms": null
  },
  {
    "codelist_name": "Binding Agent for Immunogenicity Tests",
    "cdisc_submission_value": "GANGLIOSIDE GD3",
    "cdisc_synonyms": null
  },
  {
    "codelist_name": "Binding Agent for Immunogenicity Tests",
    "cdisc_submission_value": "GANGLIOSIDE GM1",
    "cdisc_synonyms": null
  },
  {
    "codelist_name": "Binding Agent for Immunogenicity Tests",
    "cdisc_submission_value": "GANGLIOSIDE GM2",
    "cdisc_synonyms": null
  },
  {
    "codelist_name": "Binding Agent for Immunogenicity Tests",
    "cdisc_submission_value": "GANGLIOSIDE GM3",
    "cdisc_synonyms": null
  },
  {
    "codelist_name": "Binding Agent for Immunogenicity Tests",
    "cdisc_submission_value": "GANGLIOSIDE GM4",
    "cdisc_synonyms": null
  },
  {
    "codelist_name": "Binding Agent for Immunogenicity Tests",
    "cdisc_submission_value": "GANGLIOSIDE GQ1B",
    "cdisc_synonyms": null
  },
  {
    "codelist_name": "Binding Agent for Immunogenicity Tests",
    "cdisc_submission_value": "GANGLIOSIDE GT1A",
    "cdisc_synonyms": null
  },
  {
    "codelist_name": "Binding Agent for Immunogenicity Tests",
    "cdisc_submission_value": "GANGLIOSIDE GT1B",
    "cdisc_synonyms": null
  },
  {
    "codelist_name": "Binding Agent for Immunogenicity Tests",
    "cdisc_submission_value": "GLIADIN ANTIGEN",
    "cdisc_synonyms": null
  },
  {
    "codelist_name": "Binding Agent for Immunogenicity Tests",
    "cdisc_submission_value": "GLIADIN PEPTIDE, DEAMIDATED",
    "cdisc_synonyms": null
  },
  {
    "codelist_name": "Binding Agent for Immunogenicity Tests",
    "cdisc_submission_value": "HISTONE H1",
    "cdisc_synonyms": null
  },
  {
    "codelist_name": "Binding Agent for Immunogenicity Tests",
    "cdisc_submission_value": "HISTONE H2A",
    "cdisc_synonyms": null
  },
  {
    "codelist_name": "Binding Agent for Immunogenicity Tests",
    "cdisc_submission_value": "HISTONE H2B",
    "cdisc_synonyms": null
  },
  {
    "codelist_name": "Binding Agent for Immunogenicity Tests",
    "cdisc_submission_value": "HISTONE H3",
    "cdisc_synonyms": null
  },
  {
    "codelist_name": "Binding Agent for Immunogenicity Tests",
    "cdisc_submission_value": "HISTONE H4",
    "cdisc_synonyms": null
  },
  {
    "codelist_name": "Binding Agent for Immunogenicity Tests",
    "cdisc_submission_value": "HISTONE",
    "cdisc_synonyms": null
  },
  {
    "codelist_name": "Binding Agent for Immunogenicity Tests",
    "cdisc_submission_value": "HIV VIRUSES MIX",
    "cdisc_synonyms": null
  },
  {
    "codelist_name": "Binding Agent for Immunogenicity Tests",
    "cdisc_submission_value": "HLA CLASS I ANTIGENS",
    "cdisc_synonyms": null
  },
  {
    "codelist_name": "Binding Agent for Immunogenicity Tests",
    "cdisc_submission_value": "HLA CLASS II ANTIGENS",
    "cdisc_synonyms": null
  },
  {
    "codelist_name": "Binding Agent for Immunogenicity Tests",
    "cdisc_submission_value": "HOUSE DUST ANTIGEN",
    "cdisc_synonyms": null
  },
  {
    "codelist_name": "Binding Agent for Immunogenicity Tests",
    "cdisc_submission_value": "HTLV VIRUSES MIX",
    "cdisc_synonyms": null
  },
  {
    "codelist_name": "Binding Agent for Immunogenicity Tests",
    "cdisc_submission_value": "IGG FC",
    "cdisc_synonyms": null
  },
  {
    "codelist_name": "Binding Agent for Immunogenicity Tests",
    "cdisc_submission_value": "INSULIN",
    "cdisc_synonyms": null
  },
  {
    "codelist_name": "Binding Agent for Immunogenicity Tests",
    "cdisc_submission_value": "ISLET CELL CYTOPLASMIC AUTOANTIGENS",
    "cdisc_synonyms": null
  },
  {
    "codelist_name": "Binding Agent for Immunogenicity Tests",
    "cdisc_submission_value": "MILK ANTIGEN",
    "cdisc_synonyms": null
  },
  {
    "codelist_name": "Binding Agent for Immunogenicity Tests",
    "cdisc_submission_value": "MITOCHONDRIAL AUTOANTIGENS",
    "cdisc_synonyms": null
  },
  {
    "codelist_name": "Binding Agent for Immunogenicity Tests",
    "cdisc_submission_value": "MYELIN AUTOANTIGENS",
    "cdisc_synonyms": null
  },
  {
    "codelist_name": "Binding Agent for Immunogenicity Tests",
    "cdisc_submission_value": "NEURONAL NUCLEAR AUTOANTIGENS",
    "cdisc_synonyms": null
  },
  {
    "codelist_name": "Binding Agent for Immunogenicity Tests",
    "cdisc_submission_value": "NUCLEAR AUTOANTIGENS",
    "cdisc_synonyms": null
  },
  {
    "codelist_name": "Binding Agent for Immunogenicity Tests",
    "cdisc_submission_value": "NUCLEOSOME",
    "cdisc_synonyms": null
  },
  {
    "codelist_name": "Binding Agent for Immunogenicity Tests",
    "cdisc_submission_value": "PEMPHIGOID AUTOANTIGENS",
    "cdisc_synonyms": null
  },
  {
    "codelist_name": "Binding Agent for Immunogenicity Tests",
    "cdisc_submission_value": "PHOSPHATIDYLSERINE",
    "cdisc_synonyms": null
  },
  {
    "codelist_name": "Binding Agent for Immunogenicity Tests",
    "cdisc_submission_value": "PHOSPHOLIPID",
    "cdisc_synonyms": null
  },
  {
    "codelist_name": "Binding Agent for Immunogenicity Tests",
    "cdisc_submission_value": "PROTOZOANS MIX",
    "cdisc_synonyms": null
  },
  {
    "codelist_name": "Binding Agent for Immunogenicity Tests",
    "cdisc_submission_value": "SMOOTH MUSCLE AUTOANTIGENS",
    "cdisc_synonyms": null
  },
  {
    "codelist_name": "Binding Agent for Immunogenicity Tests",
    "cdisc_submission_value": "STRIATED MUSCLE AUTOANTIGENS",
    "cdisc_synonyms": null
  },
  {
    "codelist_name": "Binding Agent for Immunogenicity Tests",
    "cdisc_submission_value": "THYROID AUTOANTIGENS",
    "cdisc_synonyms": null
  },
  {
    "codelist_name": "Binding Agent for Immunogenicity Tests",
    "cdisc_submission_value": "TITIN",
    "cdisc_synonyms": null
  },
  {
    "codelist_name": "Biospecimen Events Dictionary Derived Term",
    "cdisc_submission_value": "ALIQUOTING",
    "cdisc_synonyms": null
  },
  {
    "codelist_name": "Biospecimen Events Dictionary Derived Term",
    "cdisc_submission_value": "ARCHIVE RETRIEVING",
    "cdisc_synonyms": null
  },
  {
    "codelist_name": "Biospecimen Events Dictionary Derived Term",
    "cdisc_submission_value": "CENTRIFUGING",
    "cdisc_synonyms": null
  },
  {
    "codelist_name": "Biospecimen Events Dictionary Derived Term",
    "cdisc_submission_value": "COLLECTING",
    "cdisc_synonyms": null
  },
  {
    "codelist_name": "Biospecimen Events Dictionary Derived Term",
    "cdisc_submission_value": "CONCENTRATING",
    "cdisc_synonyms": null
  },
  {
    "codelist_name": "Biospecimen Events Dictionary Derived Term",
    "cdisc_submission_value": "CONSUMING",
    "cdisc_synonyms": null
  },
  {
    "codelist_name": "Biospecimen Events Dictionary Derived Term",
    "cdisc_submission_value": "CULTURING",
    "cdisc_synonyms": null
  },
  {
    "codelist_name": "Biospecimen Events Dictionary Derived Term",
    "cdisc_submission_value": "DECONTAMINATING",
    "cdisc_synonyms": null
  },
  {
    "codelist_name": "Biospecimen Events Dictionary Derived Term",
    "cdisc_submission_value": "DESTROYING",
    "cdisc_synonyms": null
  },
  {
    "codelist_name": "Biospecimen Events Dictionary Derived Term",
    "cdisc_submission_value": "DILUTING",
    "cdisc_synonyms": null
  },
  {
    "codelist_name": "Biospecimen Events Dictionary Derived Term",
    "cdisc_submission_value": "EMBEDDING",
    "cdisc_synonyms": null
  },
  {
    "codelist_name": "Biospecimen Events Dictionary Derived Term",
    "cdisc_submission_value": "EXTRACTING",
    "cdisc_synonyms": null
  },
  {
    "codelist_name": "Biospecimen Events Dictionary Derived Term",
    "cdisc_submission_value": "FIXING",
    "cdisc_synonyms": null
  },
  {
    "codelist_name": "Biospecimen Events Dictionary Derived Term",
    "cdisc_submission_value": "FLASH FREEZING",
    "cdisc_synonyms": null
  },
  {
    "codelist_name": "Biospecimen Events Dictionary Derived Term",
    "cdisc_submission_value": "FREEZING",
    "cdisc_synonyms": null
  },
  {
    "codelist_name": "Biospecimen Events Dictionary Derived Term",
    "cdisc_submission_value": "INCUBATING",
    "cdisc_synonyms": null
  },
  {
    "codelist_name": "Biospecimen Events Dictionary Derived Term",
    "cdisc_submission_value": "ISOLATING",
    "cdisc_synonyms": null
  },
  {
    "codelist_name": "Biospecimen Events Dictionary Derived Term",
    "cdisc_submission_value": "MOUNTING",
    "cdisc_synonyms": null
  },
  {
    "codelist_name": "Biospecimen Events Dictionary Derived Term",
    "cdisc_submission_value": "PARTIAL CONSUMING",
    "cdisc_synonyms": null
  },
  {
    "codelist_name": "Biospecimen Events Dictionary Derived Term",
    "cdisc_submission_value": "POOLING",
    "cdisc_synonyms": null
  },
  {
    "codelist_name": "Biospecimen Events Dictionary Derived Term",
    "cdisc_submission_value": "RECEIVING",
    "cdisc_synonyms": null
  },
  {
    "codelist_name": "Biospecimen Events Dictionary Derived Term",
    "cdisc_submission_value": "REFRIGERATING",
    "cdisc_synonyms": null
  },
  {
    "codelist_name": "Biospecimen Events Dictionary Derived Term",
    "cdisc_submission_value": "RETRIEVING",
    "cdisc_synonyms": null
  },
  {
    "codelist_name": "Biospecimen Events Dictionary Derived Term",
    "cdisc_submission_value": "SECTIONING",
    "cdisc_synonyms": null
  },
  {
    "codelist_name": "Biospecimen Events Dictionary Derived Term",
    "cdisc_submission_value": "SHIPPING",
    "cdisc_synonyms": null
  },
  {
    "codelist_name": "Biospecimen Events Dictionary Derived Term",
    "cdisc_submission_value": "STAINING",
    "cdisc_synonyms": null
  },
  {
    "codelist_name": "Biospecimen Events Dictionary Derived Term",
    "cdisc_submission_value": "STORING",
    "cdisc_synonyms": null
  },
  {
    "codelist_name": "Biospecimen Events Dictionary Derived Term",
    "cdisc_submission_value": "THAWING",
    "cdisc_synonyms": null
  },
  {
    "codelist_name": "BRIDG Activity Mood",
    "cdisc_submission_value": "PERFORMED",
    "cdisc_synonyms": null
  },
  {
    "codelist_name": "BRIDG Activity Mood",
    "cdisc_submission_value": "SCHEDULED",
    "cdisc_synonyms": null
  },
  {
    "codelist_name": "Cardiac Procedure Indication",
    "cdisc_submission_value": "CANDIDATE TO RECEIVE CARDIAC TRANSPLANT",
    "cdisc_synonyms": null
  },
  {
    "codelist_name": "Cardiac Procedure Indication",
    "cdisc_submission_value": "CARDIAC ARREST/ARRHYTHMIA ETIOLOGY UNKNOWN",
    "cdisc_synonyms": null
  },
  {
    "codelist_name": "Cardiac Procedure Indication",
    "cdisc_submission_value": "CARDIOMYOPATHY",
    "cdisc_synonyms": null
  },
  {
    "codelist_name": "Cardiac Procedure Indication",
    "cdisc_submission_value": "CHRONIC TOTAL OCCLUSION",
    "cdisc_synonyms": null
  },
  {
    "codelist_name": "Cardiac Procedure Indication",
    "cdisc_submission_value": "DONOR FOR CARDIAC TRANSPLANT",
    "cdisc_synonyms": null
  },
  {
    "codelist_name": "Cardiac Procedure Indication",
    "cdisc_submission_value": "END OF EXPECTED BATTERY LIFE",
    "cdisc_synonyms": null
  },
  {
    "codelist_name": "Cardiac Procedure Indication",
    "cdisc_submission_value": "FAULTY CONNECTOR/HEADER",
    "cdisc_synonyms": null
  },
  {
    "codelist_name": "Cardiac Procedure Indication",
    "cdisc_submission_value": "GENERATOR IS BEING REPLACED AT THE TIME OF LEAD REVISION",
    "cdisc_synonyms": null
  },
  {
    "codelist_name": "Cardiac Procedure Indication",
    "cdisc_submission_value": "GENERATOR MALFUNCTION",
    "cdisc_synonyms": null
  },
  {
    "codelist_name": "Cardiac Procedure Indication",
    "cdisc_submission_value": "IMMEDIATE PERCUTANEOUS CORONARY INTERVENTION (PCI) FOR ST ELEVATION MYOCARDIAL INFARCTION (STEMI)",
    "cdisc_synonyms": null
  },
  {
    "codelist_name": "Cardiac Procedure Indication",
    "cdisc_submission_value": "INFECTION",
    "cdisc_synonyms": null
  },
  {
    "codelist_name": "Cardiac Procedure Indication",
    "cdisc_submission_value": "LEAD EROSION",
    "cdisc_synonyms": null
  },
  {
    "codelist_name": "Cardiac Procedure Indication",
    "cdisc_submission_value": "LEFT VENTRICULAR SYSTOLIC DYSFUNCTION",
    "cdisc_synonyms": null
  },
  {
    "codelist_name": "Cardiac Procedure Indication",
    "cdisc_submission_value": "MANUFACTURER RECALL",
    "cdisc_synonyms": null
  },
  {
    "codelist_name": "Cardiac Procedure Indication",
    "cdisc_submission_value": "MANUFACTURER RECOGNIZED A RECURRING PERFORMANCE FAILURE",
    "cdisc_synonyms": null
  },
  {
    "codelist_name": "Cardiac Procedure Indication",
    "cdisc_submission_value": "MEDICAL CONDITION OR PROCEDURE AFFECTS IMPLANTATION SITE",
    "cdisc_synonyms": null
  },
  {
    "codelist_name": "Cardiac Procedure Indication",
    "cdisc_submission_value": "MEDICAL OR SURGICAL PROCEDURE REQUIRING RELOCATION OF LEAD",
    "cdisc_synonyms": null
  },
  {
    "codelist_name": "Cardiac Procedure Indication",
    "cdisc_submission_value": "PERCUTANEOUS CORONARY INTERVENTION (PCI) FOR HIGH RISK NON-ST ELEVATION MYOCARDIAL INFARCTION OR UNSTABLE ANGINA",
    "cdisc_synonyms": null
  },
  {
    "codelist_name": "Cardiac Procedure Indication",
    "cdisc_submission_value": "PERCUTANEOUS CORONARY INTERVENTION (PCI) FOR ST ELEVATION MYOCARDIAL INFARCTION (STEMI) (STABLE AFTER SUCCESSFUL FULL-DOSE THROMBOLYTICS)",
    "cdisc_synonyms": null
  },
  {
    "codelist_name": "Cardiac Procedure Indication",
    "cdisc_submission_value": "PERCUTANEOUS CORONARY INTERVENTION (PCI) FOR ST ELEVATION MYOCARDIAL INFARCTION (STEMI) (STABLE, >12 HRS FROM SYMPTOM ONSET)",
    "cdisc_synonyms": null
  },
  {
    "codelist_name": "Cardiac Procedure Indication",
    "cdisc_submission_value": "PERCUTANEOUS CORONARY INTERVENTION (PCI) FOR ST ELEVATION MYOCARDIAL INFARCTION (STEMI) (UNSTABLE, >12 HRS FROM SYMPTOM ONSET)",
    "cdisc_synonyms": null
  },
  {
    "codelist_name": "Cardiac Procedure Indication",
    "cdisc_submission_value": "POST-CARDIAC TRANSPLANT",
    "cdisc_synonyms": null
  },
  {
    "codelist_name": "Cardiac Procedure Indication",
    "cdisc_submission_value": "PRE-OPERATIVE EVALUATION FOR NON-CARDIOVASCULAR SURGERY",
    "cdisc_synonyms": null
  },
  {
    "codelist_name": "Cardiac Procedure Indication",
    "cdisc_submission_value": "PRIMARY PREVENTION",
    "cdisc_synonyms": null
  },
  {
    "codelist_name": "Cardiac Procedure Indication",
    "cdisc_submission_value": "RESCUE PERCUTANEOUS CORONARY INTERVENTION (PCI) FOR ST ELEVATION MYOCARDIAL INFARCTION (STEMI) (AFTER FAILED FULL-DOSE THROMBOLYTICS)",
    "cdisc_synonyms": null
  },
  {
    "codelist_name": "Cardiac Procedure Indication",
    "cdisc_submission_value": "SECONDARY PREVENTION",
    "cdisc_synonyms": null
  },
  {
    "codelist_name": "Cardiac Procedure Indication",
    "cdisc_submission_value": "SPONTANEOUS SUSTAINED VENTRICULAR TACHYCARDIA",
    "cdisc_synonyms": null
  },
  {
    "codelist_name": "Cardiac Procedure Indication",
    "cdisc_submission_value": "STAGED PERCUTANEOUS CORONARY INTERVENTION (PCI)",
    "cdisc_synonyms": null
  },
  {
    "codelist_name": "Cardiac Procedure Indication",
    "cdisc_submission_value": "SYNCOPE WITH HIGH RISK CHARACTERISTICS",
    "cdisc_synonyms": null
  },
  {
    "codelist_name": "Cardiac Procedure Indication",
    "cdisc_submission_value": "SYNCOPE WITH INDUCIBLE VENTRICULAR TACHYCARDIA",
    "cdisc_synonyms": null
  },
  {
    "codelist_name": "Cardiac Procedure Indication",
    "cdisc_submission_value": "UPGRADE TO A DEVICE WITH ADDITIONAL PACING CAPABILITIES",
    "cdisc_synonyms": null
  },
  {
    "codelist_name": "Cardiac Procedure Indication",
    "cdisc_submission_value": "VENTRICULAR FIBRILLATION",
    "cdisc_synonyms": null
  },
  {
    "codelist_name": "Cardiac Rhythm Device Failure Manifestation",
    "cdisc_submission_value": "ATRIAL PACING MALFUNCTION",
    "cdisc_synonyms": null
  },
  {
    "codelist_name": "Cardiac Rhythm Device Failure Manifestation",
    "cdisc_submission_value": "DEFIBRILLATION MALFUNCTION",
    "cdisc_synonyms": null
  },
  {
    "codelist_name": "Cardiac Rhythm Device Failure Manifestation",
    "cdisc_submission_value": "LEFT VENTRICULAR PACING MALFUNCTION",
    "cdisc_synonyms": null
  },
  {
    "codelist_name": "Cardiac Rhythm Device Failure Manifestation",
    "cdisc_submission_value": "RIGHT VENTRICULAR PACING MALFUNCTION",
    "cdisc_synonyms": null
  },
  {
    "codelist_name": "Cardiovascular Findings About Results",
    "cdisc_submission_value": "ANGIOGRAPHY",
    "cdisc_synonyms": null
  },
  {
    "codelist_name": "Cardiovascular Findings About Results",
    "cdisc_submission_value": "AUGMENTATION OF ORAL DIURETIC THERAPY",
    "cdisc_synonyms": null
  },
  {
    "codelist_name": "Cardiovascular Findings About Results",
    "cdisc_submission_value": "AUTOPSY",
    "cdisc_synonyms": null
  },
  {
    "codelist_name": "Cardiovascular Findings About Results",
    "cdisc_submission_value": "CLINICALLY SIGNIFICANT OR RAPID WEIGHT GAIN",
    "cdisc_synonyms": null
  },
  {
    "codelist_name": "Cardiovascular Findings About Results",
    "cdisc_submission_value": "CORONARY LESION ON ANGIOGRAPHY",
    "cdisc_synonyms": null
  },
  {
    "codelist_name": "Cardiovascular Findings About Results",
    "cdisc_submission_value": "CORONARY REVASCULARIZATION",
    "cdisc_synonyms": null
  },
  {
    "codelist_name": "Cardiovascular Findings About Results",
    "cdisc_submission_value": "DECREASED EXERCISE TOLERANCE",
    "cdisc_synonyms": null
  },
  {
    "codelist_name": "Cardiovascular Findings About Results",
    "cdisc_submission_value": "DYSPNEA",
    "cdisc_synonyms": null
  },
  {
    "codelist_name": "Cardiovascular Findings About Results",
    "cdisc_submission_value": "FATIGUE",
    "cdisc_synonyms": null
  },
  {
    "codelist_name": "Cardiovascular Findings About Results",
    "cdisc_submission_value": "HEART FAILURE HOSPITALIZATION",
    "cdisc_synonyms": null
  },
  {
    "codelist_name": "Cardiovascular Findings About Results",
    "cdisc_submission_value": "HEMORRHAGIC STROKE",
    "cdisc_synonyms": null
  },
  {
    "codelist_name": "Cardiovascular Findings About Results",
    "cdisc_submission_value": "INCREASE IN HEART FAILURE BIOMARKER",
    "cdisc_synonyms": null
  },
  {
    "codelist_name": "Cardiovascular Findings About Results",
    "cdisc_submission_value": "INCREASED JUGULAR VENOUS PRESSURE OR HEPATOJUGULAR REFLUX",
    "cdisc_synonyms": null
  },
  {
    "codelist_name": "Cardiovascular Findings About Results",
    "cdisc_submission_value": "INDUCIBLE MYOCARDIAL ISCHEMIA",
    "cdisc_synonyms": null
  },
  {
    "codelist_name": "Cardiovascular Findings About Results",
    "cdisc_submission_value": "INTRAVENOUS DIURETIC, INOTROPE, OR VASODILATOR THERAPY",
    "cdisc_synonyms": null
  },
  {
    "codelist_name": "Cardiovascular Findings About Results",
    "cdisc_submission_value": "INVASIVE DIAGNOSTIC EVIDENCE OF HEART FAILURE",
    "cdisc_synonyms": null
  },
  {
    "codelist_name": "Cardiovascular Findings About Results",
    "cdisc_submission_value": "ISCHEMIC STROKE",
    "cdisc_synonyms": null
  },
  {
    "codelist_name": "Cardiovascular Findings About Results",
    "cdisc_submission_value": "LOSS OF A SIDE BRANCH",
    "cdisc_synonyms": null
  },
  {
    "codelist_name": "Cardiovascular Findings About Results",
    "cdisc_submission_value": "LOSS OF MAJOR CORONARY",
    "cdisc_synonyms": null
  },
  {
    "codelist_name": "Cardiovascular Findings About Results",
    "cdisc_submission_value": "MECHANICAL OR SURGICAL INTERVENTION",
    "cdisc_synonyms": null
  },
  {
    "codelist_name": "Cardiovascular Findings About Results",
    "cdisc_submission_value": "NEW LOSS OF VIABLE MYOCARDIUM",
    "cdisc_synonyms": null
  },
  {
    "codelist_name": "Cardiovascular Findings About Results",
    "cdisc_submission_value": "NEW REGIONAL WALL MOTION ABNORMALITY",
    "cdisc_synonyms": null
  },
  {
    "codelist_name": "Cardiovascular Findings About Results",
    "cdisc_submission_value": "NON-INVASIVE DIAGNOSTIC EVIDENCE OF HEART FAILURE",
    "cdisc_synonyms": null
  },
  {
    "codelist_name": "Cardiovascular Findings About Results",
    "cdisc_submission_value": "PERIPHERAL EDEMA",
    "cdisc_synonyms": null
  },
  {
    "codelist_name": "Cardiovascular Findings About Results",
    "cdisc_submission_value": "PULMONARY RALES/CRACKLES/CREPITATIONS",
    "cdisc_synonyms": null
  },
  {
    "codelist_name": "Cardiovascular Findings About Results",
    "cdisc_submission_value": "RADIOLOGICAL EVIDENCE OF PULMONARY CONGESTION",
    "cdisc_synonyms": null
  },
  {
    "codelist_name": "Cardiovascular Findings About Results",
    "cdisc_submission_value": "RESTING ECG CHANGES",
    "cdisc_synonyms": null
  },
  {
    "codelist_name": "Cardiovascular Findings About Results",
    "cdisc_submission_value": "S3 GALLOP",
    "cdisc_synonyms": null
  },
  {
    "codelist_name": "Cardiovascular Findings About Results",
    "cdisc_submission_value": "SLOW-FLOW/NO-FLOW/EMBOLIZATION",
    "cdisc_synonyms": null
  },
  {
    "codelist_name": "Cardiovascular Findings About Results",
    "cdisc_submission_value": "STENT THROMBOSIS ARC ACUTE",
    "cdisc_synonyms": null
  },
  {
    "codelist_name": "Cardiovascular Findings About Results",
    "cdisc_submission_value": "STENT THROMBOSIS ARC LATE",
    "cdisc_synonyms": null
  },
  {
    "codelist_name": "Cardiovascular Findings About Results",
    "cdisc_submission_value": "STENT THROMBOSIS ARC SUBACUTE",
    "cdisc_synonyms": null
  },
  {
    "codelist_name": "Cardiovascular Findings About Results",
    "cdisc_submission_value": "STENT THROMBOSIS ARC VERY LATE",
    "cdisc_synonyms": null
  },
  {
    "codelist_name": "Cardiovascular Findings About Results",
    "cdisc_submission_value": "TYPE 1 MYOCARDIAL INFARCTION",
    "cdisc_synonyms": null
  },
  {
    "codelist_name": "Cardiovascular Findings About Results",
    "cdisc_submission_value": "TYPE 2 MYOCARDIAL INFARCTION",
    "cdisc_synonyms": null
  },
  {
    "codelist_name": "Cardiovascular Findings About Results",
    "cdisc_submission_value": "TYPE 3 MYOCARDIAL INFARCTION",
    "cdisc_synonyms": null
  },
  {
    "codelist_name": "Cardiovascular Findings About Results",
    "cdisc_submission_value": "TYPE 4A MYOCARDIAL INFARCTION",
    "cdisc_synonyms": null
  },
  {
    "codelist_name": "Cardiovascular Findings About Results",
    "cdisc_submission_value": "TYPE 4B MYOCARDIAL INFARCTION",
    "cdisc_synonyms": null
  },
  {
    "codelist_name": "Cardiovascular Findings About Results",
    "cdisc_submission_value": "TYPE 4C MYOCARDIAL INFARCTION",
    "cdisc_synonyms": null
  },
  {
    "codelist_name": "Cardiovascular Findings About Results",
    "cdisc_submission_value": "TYPE 5 MYOCARDIAL INFARCTION",
    "cdisc_synonyms": null
  },
  {
    "codelist_name": "Cardiovascular Findings About Results",
    "cdisc_submission_value": "UNDETERMINED STROKE",
    "cdisc_synonyms": null
  },
  {
    "codelist_name": "Cardiovascular Findings About Results",
    "cdisc_submission_value": "URGENT HEART FAILURE VISIT",
    "cdisc_synonyms": null
  },
  {
    "codelist_name": "Cardiovascular Findings About Results",
    "cdisc_submission_value": "VOLUME OVERLOAD",
    "cdisc_synonyms": null
  },
  {
    "codelist_name": "Cardiovascular Findings About Results",
    "cdisc_submission_value": "WORSENED END-ORGAN PERFUSION",
    "cdisc_synonyms": null
  },
  {
    "codelist_name": "Case Finding",
    "cdisc_submission_value": "ACTIVE CASE SEARCH",
    "cdisc_synonyms": null
  },
  {
    "codelist_name": "Case Finding",
    "cdisc_submission_value": "PASSIVE CASE SEARCH",
    "cdisc_synonyms": null
  },
  {
    "codelist_name": "Category for Cell Phenotyping",
    "cdisc_submission_value": "CELL FUNCTION",
    "cdisc_synonyms": null
  },
  {
    "codelist_name": "Category for Cell Phenotyping",
    "cdisc_submission_value": "IMMUNOPHENOTYPING",
    "cdisc_synonyms": null
  },
  {
    "codelist_name": "Category for Cell Phenotyping",
    "cdisc_submission_value": "TARGET ENGAGEMENT",
    "cdisc_synonyms": null
  },
  {
    "codelist_name": "Category of Device Events",
    "cdisc_submission_value": "DATA STORAGE FAILURE",
    "cdisc_synonyms": null
  },
  {
    "codelist_name": "Category of Device Events",
    "cdisc_submission_value": "SCHEDULED MAINTENANCE",
    "cdisc_synonyms": null
  },
  {
    "codelist_name": "Category of Device Events",
    "cdisc_submission_value": "SOFTWARE UPDATE",
    "cdisc_synonyms": null
  },
  {
    "codelist_name": "Category of Inclusion/Exclusion",
    "cdisc_submission_value": "EXCLUSION",
    "cdisc_synonyms": null
  },
  {
    "codelist_name": "Category of Inclusion/Exclusion",
    "cdisc_submission_value": "INCLUSION",
    "cdisc_synonyms": null
  },
  {
    "codelist_name": "Category of Ingredient Quantities by Component",
    "cdisc_submission_value": "NON-TOBACCO INGREDIENT",
    "cdisc_synonyms": null
  },
  {
    "codelist_name": "Category of Ingredient Quantities by Component",
    "cdisc_submission_value": "TOBACCO INGREDIENT",
    "cdisc_synonyms": null
  },
  {
    "codelist_name": "Category of Oncology Response Assessment",
    "cdisc_submission_value": "ADY NEUROBLASTOMA 1995",
    "cdisc_synonyms": null
  },
  {
    "codelist_name": "Category of Oncology Response Assessment",
    "cdisc_submission_value": "BLAZER COLORECTAL CANCER 2008",
    "cdisc_synonyms": null
  },
  {
    "codelist_name": "Category of Oncology Response Assessment",
    "cdisc_submission_value": "BOONSIRIKAMCHAI COLORECTAL CANCER 2011",
    "cdisc_synonyms": null
  },
  {
    "codelist_name": "Category of Oncology Response Assessment",
    "cdisc_submission_value": "BRUGGEMANN MRD 2010",
    "cdisc_synonyms": null
  },
  {
    "codelist_name": "Category of Oncology Response Assessment",
    "cdisc_submission_value": "BURCOMBE BREAST CANCER 2005",
    "cdisc_synonyms": null
  },
  {
    "codelist_name": "Category of Oncology Response Assessment",
    "cdisc_submission_value": "CHESON CLL 2006",
    "cdisc_synonyms": null
  },
  {
    "codelist_name": "Category of Oncology Response Assessment",
    "cdisc_submission_value": "CHESON CLL 2012",
    "cdisc_synonyms": null
  },
  {
    "codelist_name": "Category of Oncology Response Assessment",
    "cdisc_submission_value": "CHESON HODGKINS NON-HODGKINS LYMPHOMA 2008",
    "cdisc_synonyms": null
  },
  {
    "codelist_name": "Category of Oncology Response Assessment",
    "cdisc_submission_value": "CHESON LYMPHOMA 2008",
    "cdisc_synonyms": null
  },
  {
    "codelist_name": "Category of Oncology Response Assessment",
    "cdisc_submission_value": "CHESON MALIGNANT LYMPHOMA 2007",
    "cdisc_synonyms": null
  },
  {
    "codelist_name": "Category of Oncology Response Assessment",
    "cdisc_submission_value": "CHESON NON-HODGKINS HODGKINS LYMPHOMA 1993",
    "cdisc_synonyms": null
  },
  {
    "codelist_name": "Category of Oncology Response Assessment",
    "cdisc_submission_value": "CHESON NON-HODGKINS LYMPHOMA 1999",
    "cdisc_synonyms": null
  },
  {
    "codelist_name": "Category of Oncology Response Assessment",
    "cdisc_submission_value": "CHOI GIST 2008",
    "cdisc_synonyms": null
  },
  {
    "codelist_name": "Category of Oncology Response Assessment",
    "cdisc_submission_value": "CHOLLET BREAST CANCER 2002",
    "cdisc_synonyms": null
  },
  {
    "codelist_name": "Category of Oncology Response Assessment",
    "cdisc_submission_value": "DIMOPOULOS IWWM-7 CONSENSUS 2014",
    "cdisc_synonyms": null
  },
  {
    "codelist_name": "Category of Oncology Response Assessment",
    "cdisc_submission_value": "DIMOPOULOS WALDENSTROMS MACROGLOBULINEMIA 2018",
    "cdisc_synonyms": null
  },
  {
    "codelist_name": "Category of Oncology Response Assessment",
    "cdisc_submission_value": "DOHNER AML 2010",
    "cdisc_synonyms": null
  },
  {
    "codelist_name": "Category of Oncology Response Assessment",
    "cdisc_submission_value": "DURIE MULTIPLE MYELOMA 2006",
    "cdisc_synonyms": null
  },
  {
    "codelist_name": "Category of Oncology Response Assessment",
    "cdisc_submission_value": "EASL BRUIX LIVER CANCER 2001",
    "cdisc_synonyms": null
  },
  {
    "codelist_name": "Category of Oncology Response Assessment",
    "cdisc_submission_value": "EBMT BLADE MYELOMA 1998",
    "cdisc_synonyms": null
  },
  {
    "codelist_name": "Category of Oncology Response Assessment",
    "cdisc_submission_value": "ELN DOHNER AML 2017",
    "cdisc_synonyms": null
  },
  {
    "codelist_name": "Category of Oncology Response Assessment",
    "cdisc_submission_value": "ELN DOHNER AML 2022",
    "cdisc_synonyms": null
  },
  {
    "codelist_name": "Category of Oncology Response Assessment",
    "cdisc_submission_value": "EORTC OLSEN MYCOSIS FUNGOIDES AND SEZARY SYNDROME 2011",
    "cdisc_synonyms": null
  },
  {
    "codelist_name": "Category of Oncology Response Assessment",
    "cdisc_submission_value": "EUROPEAN LEUKEMIANET BACCARANI CML 2006",
    "cdisc_synonyms": null
  },
  {
    "codelist_name": "Category of Oncology Response Assessment",
    "cdisc_submission_value": "FAROOQUI SUPP CLL 2014",
    "cdisc_synonyms": null
  },
  {
    "codelist_name": "Category of Oncology Response Assessment",
    "cdisc_submission_value": "GCIG RUSTIN OVARIAN CANCER 2011",
    "cdisc_synonyms": null
  },
  {
    "codelist_name": "Category of Oncology Response Assessment",
    "cdisc_submission_value": "GUILHOT CML 2007",
    "cdisc_synonyms": null
  },
  {
    "codelist_name": "Category of Oncology Response Assessment",
    "cdisc_submission_value": "GUPPY OVARIAN CANCER 2002",
    "cdisc_synonyms": null
  },
  {
    "codelist_name": "Category of Oncology Response Assessment",
    "cdisc_submission_value": "HAMAOKA BREAST CANCER 2010",
    "cdisc_synonyms": null
  },
  {
    "codelist_name": "Category of Oncology Response Assessment",
    "cdisc_submission_value": "HARTMAN PANCREATIC CANCER 2012",
    "cdisc_synonyms": null
  },
  {
    "codelist_name": "Category of Oncology Response Assessment",
    "cdisc_submission_value": "HARTMANN GERM CELL CANCER 2002",
    "cdisc_synonyms": null
  },
  {
    "codelist_name": "Category of Oncology Response Assessment",
    "cdisc_submission_value": "IRANO 2015",
    "cdisc_synonyms": null
  },
  {
    "codelist_name": "Category of Oncology Response Assessment",
    "cdisc_submission_value": "iRECIST",
    "cdisc_synonyms": null
  },
  {
    "codelist_name": "Category of Oncology Response Assessment",
    "cdisc_submission_value": "ITMIG MRECIST BENVENISTE THYMIC EPITHELIAL TUMORS 2014",
    "cdisc_synonyms": null
  },
  {
    "codelist_name": "Category of Oncology Response Assessment",
    "cdisc_submission_value": "IWC HALLEK CLL 2008",
    "cdisc_synonyms": null
  },
  {
    "codelist_name": "Category of Oncology Response Assessment",
    "cdisc_submission_value": "IWC HALLEK CLL 2018",
    "cdisc_synonyms": null
  },
  {
    "codelist_name": "Category of Oncology Response Assessment",
    "cdisc_submission_value": "IWG CHESON AML 2003",
    "cdisc_synonyms": null
  },
  {
    "codelist_name": "Category of Oncology Response Assessment",
    "cdisc_submission_value": "IWG CHESON MDS 2000",
    "cdisc_synonyms": null
  },
  {
    "codelist_name": "Category of Oncology Response Assessment",
    "cdisc_submission_value": "IWG CHESON MDS 2006",
    "cdisc_synonyms": null
  },
  {
    "codelist_name": "Category of Oncology Response Assessment",
    "cdisc_submission_value": "JACINTO CERVICAL CANCER 2007",
    "cdisc_synonyms": null
  },
  {
    "codelist_name": "Category of Oncology Response Assessment",
    "cdisc_submission_value": "JAPANESE CLASSIFICATION GASTRIC CANCER 2011",
    "cdisc_synonyms": null
  },
  {
    "codelist_name": "Category of Oncology Response Assessment",
    "cdisc_submission_value": "JUWEID NON-HODGKINS LYMPHOMA 2005",
    "cdisc_synonyms": null
  },
  {
    "codelist_name": "Category of Oncology Response Assessment",
    "cdisc_submission_value": "KEAM BREAST CANCER 2013",
    "cdisc_synonyms": null
  },
  {
    "codelist_name": "Category of Oncology Response Assessment",
    "cdisc_submission_value": "KIMBY WALDENSTROMS MACROGLOBULINEMIA 2006",
    "cdisc_synonyms": null
  },
  {
    "codelist_name": "Category of Oncology Response Assessment",
    "cdisc_submission_value": "KUKER LYMPHOMA 2005",
    "cdisc_synonyms": null
  },
  {
    "codelist_name": "Category of Oncology Response Assessment",
    "cdisc_submission_value": "KUMAR IMWG 2016",
    "cdisc_synonyms": null
  },
  {
    "codelist_name": "Category of Oncology Response Assessment",
    "cdisc_submission_value": "LEE LUNG CANCER 2011",
    "cdisc_synonyms": null
  },
  {
    "codelist_name": "Category of Oncology Response Assessment",
    "cdisc_submission_value": "LUGANO CLASSIFICATION",
    "cdisc_synonyms": null
  },
  {
    "codelist_name": "Category of Oncology Response Assessment",
    "cdisc_submission_value": "MACDONALD GLIOMA 1990",
    "cdisc_synonyms": null
  },
  {
    "codelist_name": "Category of Oncology Response Assessment",
    "cdisc_submission_value": "MASS",
    "cdisc_synonyms": null
  },
  {
    "codelist_name": "Category of Oncology Response Assessment",
    "cdisc_submission_value": "MDS/MPN IWC SAVONA MDS MPN 2015",
    "cdisc_synonyms": null
  },
  {
    "codelist_name": "Category of Oncology Response Assessment",
    "cdisc_submission_value": "MINKOV LANGERHANS CELL HISTIOCYTOSIS 2009",
    "cdisc_synonyms": null
  },
  {
    "codelist_name": "Category of Oncology Response Assessment",
    "cdisc_submission_value": "MONTSERRAT CLL 1989",
    "cdisc_synonyms": null
  },
  {
    "codelist_name": "Category of Oncology Response Assessment",
    "cdisc_submission_value": "MRANO VAN DEN BENT GLIOMA 2011",
    "cdisc_synonyms": null
  },
  {
    "codelist_name": "Category of Oncology Response Assessment",
    "cdisc_submission_value": "MRECIST ARMATO MESOTHELIOMA 2018",
    "cdisc_synonyms": null
  },
  {
    "codelist_name": "Category of Oncology Response Assessment",
    "cdisc_submission_value": "MRECIST BYRNE MESOTHELIOMA 2004",
    "cdisc_synonyms": null
  },
  {
    "codelist_name": "Category of Oncology Response Assessment",
    "cdisc_submission_value": "MRECIST LENCIONI LIVER CANCER 2010",
    "cdisc_synonyms": null
  },
  {
    "codelist_name": "Category of Oncology Response Assessment",
    "cdisc_submission_value": "MURPHY PROSTATE CANCER 1980",
    "cdisc_synonyms": null
  },
  {
    "codelist_name": "Category of Oncology Response Assessment",
    "cdisc_submission_value": "NCCN ALL MRD 2014",
    "cdisc_synonyms": null
  },
  {
    "codelist_name": "Category of Oncology Response Assessment",
    "cdisc_submission_value": "NCIWG CHESON CLL 1996",
    "cdisc_synonyms": null
  },
  {
    "codelist_name": "Category of Oncology Response Assessment",
    "cdisc_submission_value": "OWEN WALDESTROMS MACROGLOBULINEMIA 2013",
    "cdisc_synonyms": null
  },
  {
    "codelist_name": "Category of Oncology Response Assessment",
    "cdisc_submission_value": "PERCIST",
    "cdisc_synonyms": null
  },
  {
    "codelist_name": "Category of Oncology Response Assessment",
    "cdisc_submission_value": "PETIT BREAST CANCER 2001",
    "cdisc_synonyms": null
  },
  {
    "codelist_name": "Category of Oncology Response Assessment",
    "cdisc_submission_value": "PONTE-DI-LEGNO CONSORTIUM 2022",
    "cdisc_synonyms": null
  },
  {
    "codelist_name": "Category of Oncology Response Assessment",
    "cdisc_submission_value": "PRINCE TCELL LYMPHOMA 2010",
    "cdisc_synonyms": null
  },
  {
    "codelist_name": "Category of Oncology Response Assessment",
    "cdisc_submission_value": "PROTOCOL DEFINED RESPONSE CRITERIA",
    "cdisc_synonyms": null
  },
  {
    "codelist_name": "Category of Oncology Response Assessment",
    "cdisc_submission_value": "RAJKUMAR MYELOMA 2011",
    "cdisc_synonyms": null
  },
  {
    "codelist_name": "Category of Oncology Response Assessment",
    "cdisc_submission_value": "RANO ELLINGSON 2017",
    "cdisc_synonyms": null
  },
  {
    "codelist_name": "Category of Oncology Response Assessment",
    "cdisc_submission_value": "RANO",
    "cdisc_synonyms": null
  },
  {
    "codelist_name": "Category of Oncology Response Assessment",
    "cdisc_submission_value": "RECICL",
    "cdisc_synonyms": null
  },
  {
    "codelist_name": "Category of Oncology Response Assessment",
    "cdisc_submission_value": "RECIST 1.0",
    "cdisc_synonyms": null
  },
  {
    "codelist_name": "Category of Oncology Response Assessment",
    "cdisc_submission_value": "RECIST 1.1",
    "cdisc_synonyms": null
  },
  {
    "codelist_name": "Category of Oncology Response Assessment",
    "cdisc_submission_value": "SACT",
    "cdisc_synonyms": null
  },
  {
    "codelist_name": "Category of Oncology Response Assessment",
    "cdisc_submission_value": "SANDLUND PEDIATRIC NON-HODGKIN LYMPHOMA 2015",
    "cdisc_synonyms": null
  },
  {
    "codelist_name": "Category of Oncology Response Assessment",
    "cdisc_submission_value": "SCHER PROSTATE CANCER 2011",
    "cdisc_synonyms": null
  },
  {
    "codelist_name": "Category of Oncology Response Assessment",
    "cdisc_submission_value": "SCHWARZ CERVICAL CANCER 2009",
    "cdisc_synonyms": null
  },
  {
    "codelist_name": "Category of Oncology Response Assessment",
    "cdisc_submission_value": "SHINDOH COLORECTAL CANCER 2013",
    "cdisc_synonyms": null
  },
  {
    "codelist_name": "Category of Oncology Response Assessment",
    "cdisc_submission_value": "SIOPEN LEWINGTON NEUROBLASTOMA 2017",
    "cdisc_synonyms": null
  },
  {
    "codelist_name": "Category of Oncology Response Assessment",
    "cdisc_submission_value": "TSUKASAKI LEUKEMIA LYMPHOMA 2009",
    "cdisc_synonyms": null
  },
  {
    "codelist_name": "Category of Oncology Response Assessment",
    "cdisc_submission_value": "UNSPECIFIED",
    "cdisc_synonyms": null
  },
  {
    "codelist_name": "Category of Oncology Response Assessment",
    "cdisc_submission_value": "WHO BREAST CANCER 2006",
    "cdisc_synonyms": null
  },
  {
    "codelist_name": "Category of Protocol Deviation",
    "cdisc_submission_value": "DISCONTINUATION",
    "cdisc_synonyms": null
  },
  {
    "codelist_name": "Category of Protocol Deviation",
    "cdisc_submission_value": "INCLUSION/EXCLUSION",
    "cdisc_synonyms": null
  },
  {
    "codelist_name": "Category of Protocol Deviation",
    "cdisc_submission_value": "INFORMED CONSENT/ASSENT",
    "cdisc_synonyms": null
  },
  {
    "codelist_name": "Category of Protocol Deviation",
    "cdisc_submission_value": "PROHIBITED CONCOMITANT INTERVENTION",
    "cdisc_synonyms": null
  },
  {
    "codelist_name": "Category of Protocol Deviation",
    "cdisc_submission_value": "SAFETY REPORTING",
    "cdisc_synonyms": null
  },
  {
    "codelist_name": "Category of Protocol Deviation",
    "cdisc_submission_value": "STUDY INTERVENTION",
    "cdisc_synonyms": null
  },
  {
    "codelist_name": "Category of Protocol Deviation",
    "cdisc_submission_value": "TRIAL PROCEDURES",
    "cdisc_synonyms": null
  },
  {
    "codelist_name": "Category of Tobacco Product Testing",
    "cdisc_submission_value": "DESIGN PARAMETER TESTING",
    "cdisc_synonyms": null
  },
  {
    "codelist_name": "Category of Tobacco Product Testing",
    "cdisc_submission_value": "HPHC TESTING",
    "cdisc_synonyms": null
  },
  {
    "codelist_name": "Category of Tobacco Product Testing",
    "cdisc_submission_value": "STABILITY TESTING",
    "cdisc_synonyms": null
  },
  {
    "codelist_name": "Category of Tobacco Products",
    "cdisc_submission_value": "COMPARISON PRODUCT",
    "cdisc_synonyms": null
  },
  {
    "codelist_name": "Category of Tobacco Products",
    "cdisc_submission_value": "NEW PRODUCT",
    "cdisc_synonyms": null
  },
  {
    "codelist_name": "Category of Tobacco Products",
    "cdisc_submission_value": "ORIGINAL PRODUCT",
    "cdisc_synonyms": null
  },
  {
    "codelist_name": "CDISC Therapeutic Area User Guide Response",
    "cdisc_submission_value": "Acute Kidney Injury Therapeutic Area User Guide v1.0",
    "cdisc_synonyms": null
  },
  {
    "codelist_name": "CDISC Therapeutic Area User Guide Response",
    "cdisc_submission_value": "Alzheimer's Therapeutic Area User Guide v1.0",
    "cdisc_synonyms": null
  },
  {
    "codelist_name": "CDISC Therapeutic Area User Guide Response",
    "cdisc_submission_value": "Alzheimer's Therapeutic Area User Guide v2.0",
    "cdisc_synonyms": null
  },
  {
    "codelist_name": "CDISC Therapeutic Area User Guide Response",
    "cdisc_submission_value": "Asthma Therapeutic Area User Guide v1.0",
    "cdisc_synonyms": null
  },
  {
    "codelist_name": "CDISC Therapeutic Area User Guide Response",
    "cdisc_submission_value": "Breast Cancer Therapeutic Area User Guide v1.0",
    "cdisc_synonyms": null
  },
  {
    "codelist_name": "CDISC Therapeutic Area User Guide Response",
    "cdisc_submission_value": "Cardiovascular Studies Therapeutic Area User Guide v1.0",
    "cdisc_synonyms": null
  },
  {
    "codelist_name": "CDISC Therapeutic Area User Guide Response",
    "cdisc_submission_value": "Chronic Hepatitis C Therapeutic Area User Guide v1.0",
    "cdisc_synonyms": null
  },
  {
    "codelist_name": "CDISC Therapeutic Area User Guide Response",
    "cdisc_submission_value": "Colorectal Cancer Therapeutic Area User Guide v1.0",
    "cdisc_synonyms": null
  },
  {
    "codelist_name": "CDISC Therapeutic Area User Guide Response",
    "cdisc_submission_value": "COPD Therapeutic Area User Guide v1.0",
    "cdisc_synonyms": null
  },
  {
    "codelist_name": "CDISC Therapeutic Area User Guide Response",
    "cdisc_submission_value": "Crohn's Disease Therapeutic Area User Guide v1.0",
    "cdisc_synonyms": null
  },
  {
    "codelist_name": "CDISC Therapeutic Area User Guide Response",
    "cdisc_submission_value": "Diabetes - Type 1 Therapeutic Area User Guide v1.0 - Pediatrics and Devices Modules",
    "cdisc_synonyms": null
  },
  {
    "codelist_name": "CDISC Therapeutic Area User Guide Response",
    "cdisc_submission_value": "Diabetes Therapeutic Area User Guide v1.0 - Supplement for ADaM",
    "cdisc_synonyms": null
  },
  {
    "codelist_name": "CDISC Therapeutic Area User Guide Response",
    "cdisc_submission_value": "Diabetic Kidney Disease Therapeutic Area User Guide v1.0",
    "cdisc_synonyms": null
  },
  {
    "codelist_name": "CDISC Therapeutic Area User Guide Response",
    "cdisc_submission_value": "Duchenne Muscular Dystrophy Therapeutic Area User Guide v1.0",
    "cdisc_synonyms": null
  },
  {
    "codelist_name": "CDISC Therapeutic Area User Guide Response",
    "cdisc_submission_value": "Dyslipidemia Therapeutic Area User Guide v1.0",
    "cdisc_synonyms": null
  },
  {
    "codelist_name": "CDISC Therapeutic Area User Guide Response",
    "cdisc_submission_value": "Ebola Therapeutic Area User Guide v1.0",
    "cdisc_synonyms": null
  },
  {
    "codelist_name": "CDISC Therapeutic Area User Guide Response",
    "cdisc_submission_value": "Heart Failure Therapeutic Area User Guide v1.0",
    "cdisc_synonyms": null
  },
  {
    "codelist_name": "CDISC Therapeutic Area User Guide Response",
    "cdisc_submission_value": "HIV Therapeutic Area User Guide v1.0",
    "cdisc_synonyms": null
  },
  {
    "codelist_name": "CDISC Therapeutic Area User Guide Response",
    "cdisc_submission_value": "Huntington's Disease Therapeutic Area User Guide v1.0",
    "cdisc_synonyms": null
  },
  {
    "codelist_name": "CDISC Therapeutic Area User Guide Response",
    "cdisc_submission_value": "Influenza Therapeutic Area User Guide v1.0",
    "cdisc_synonyms": null
  },
  {
    "codelist_name": "CDISC Therapeutic Area User Guide Response",
    "cdisc_submission_value": "Influenza Therapeutic Area User Guide v1.1",
    "cdisc_synonyms": null
  },
  {
    "codelist_name": "CDISC Therapeutic Area User Guide Response",
    "cdisc_submission_value": "Interim User Guide for COVID-19 v1.0",
    "cdisc_synonyms": null
  },
  {
    "codelist_name": "CDISC Therapeutic Area User Guide Response",
    "cdisc_submission_value": "Kidney Transplant Therapeutic Area User Guide v1.0",
    "cdisc_synonyms": null
  },
  {
    "codelist_name": "CDISC Therapeutic Area User Guide Response",
    "cdisc_submission_value": "Lung Cancer Therapeutic Area User Guide v1.0",
    "cdisc_synonyms": null
  },
  {
    "codelist_name": "CDISC Therapeutic Area User Guide Response",
    "cdisc_submission_value": "Major Depressive Disorder Therapeutic Area User Guide v1.0",
    "cdisc_synonyms": null
  },
  {
    "codelist_name": "CDISC Therapeutic Area User Guide Response",
    "cdisc_submission_value": "Malaria Therapeutic Area User Guide v1.0",
    "cdisc_synonyms": null
  },
  {
    "codelist_name": "CDISC Therapeutic Area User Guide Response",
    "cdisc_submission_value": "Multiple Sclerosis Therapeutic Area User Guide v1.0",
    "cdisc_synonyms": null
  },
  {
    "codelist_name": "CDISC Therapeutic Area User Guide Response",
    "cdisc_submission_value": "Nutrition Therapeutic Area User Guide v1.0",
    "cdisc_synonyms": null
  },
  {
    "codelist_name": "CDISC Therapeutic Area User Guide Response",
    "cdisc_submission_value": "Pain Therapeutic Area User Guide v1.0",
    "cdisc_synonyms": null
  },
  {
    "codelist_name": "CDISC Therapeutic Area User Guide Response",
    "cdisc_submission_value": "Pain Therapeutic Area User Guide v1.1",
    "cdisc_synonyms": null
  },
  {
    "codelist_name": "CDISC Therapeutic Area User Guide Response",
    "cdisc_submission_value": "Parkinson's Disease Therapeutic Area User Guide v1.0",
    "cdisc_synonyms": null
  },
  {
    "codelist_name": "CDISC Therapeutic Area User Guide Response",
    "cdisc_submission_value": "Polycystic Kidney Disease (PKD) Therapeutic Area User Guide v1.0",
    "cdisc_synonyms": null
  },
  {
    "codelist_name": "CDISC Therapeutic Area User Guide Response",
    "cdisc_submission_value": "Post Traumatic Stress Disorder Therapeutic Area User Guide v1.0",
    "cdisc_synonyms": null
  },
  {
    "codelist_name": "CDISC Therapeutic Area User Guide Response",
    "cdisc_submission_value": "Prostate Cancer Therapeutic Area User Guide v1.0",
    "cdisc_synonyms": null
  },
  {
    "codelist_name": "CDISC Therapeutic Area User Guide Response",
    "cdisc_submission_value": "Psoriasis Therapeutic Area User Guide v1.0",
    "cdisc_synonyms": null
  },
  {
    "codelist_name": "CDISC Therapeutic Area User Guide Response",
    "cdisc_submission_value": "QT Studies Therapeutic Area User Guide v1.0",
    "cdisc_synonyms": null
  },
  {
    "codelist_name": "CDISC Therapeutic Area User Guide Response",
    "cdisc_submission_value": "Rheumatoid Arthritis Therapeutic Area User Guide v1.0",
    "cdisc_synonyms": null
  },
  {
    "codelist_name": "CDISC Therapeutic Area User Guide Response",
    "cdisc_submission_value": "Schizophrenia Therapeutic Area User Guide v1.0",
    "cdisc_synonyms": null
  },
  {
    "codelist_name": "CDISC Therapeutic Area User Guide Response",
    "cdisc_submission_value": "Schizophrenia Therapeutic Area User Guide v1.1",
    "cdisc_synonyms": null
  },
  {
    "codelist_name": "CDISC Therapeutic Area User Guide Response",
    "cdisc_submission_value": "Traditional Chinese Medicine - Coronary Artery Disease-Angina Therapeutic Area User Guide v1.0",
    "cdisc_synonyms": null
  },
  {
    "codelist_name": "CDISC Therapeutic Area User Guide Response",
    "cdisc_submission_value": "Traumatic Brain Injury Therapeutic Area User Guide v1.0",
    "cdisc_synonyms": null
  },
  {
    "codelist_name": "CDISC Therapeutic Area User Guide Response",
    "cdisc_submission_value": "Tuberculosis Therapeutic Area User Guide v2.0",
    "cdisc_synonyms": null
  },
  {
    "codelist_name": "CDISC Therapeutic Area User Guide Response",
    "cdisc_submission_value": "Vaccines Therapeutic Area User Guide v1.1",
    "cdisc_synonyms": null
  },
  {
    "codelist_name": "CDISC Therapeutic Area User Guide Response",
    "cdisc_submission_value": "Virology Therapeutic Area User Guide v2.0",
    "cdisc_synonyms": null
  },
  {
    "codelist_name": "CDISC Therapeutic Area User Guide Response",
    "cdisc_submission_value": "Virology Therapeutic Area User Guide v2.1",
    "cdisc_synonyms": null
  },
  {
    "codelist_name": "Cell State Response",
    "cdisc_submission_value": "ACTIVATED",
    "cdisc_synonyms": null
  },
  {
    "codelist_name": "Cell State Response",
    "cdisc_submission_value": "APOPTOTIC",
    "cdisc_synonyms": null
  },
  {
    "codelist_name": "Cell State Response",
    "cdisc_submission_value": "EXHAUSTED",
    "cdisc_synonyms": null
  },
  {
    "codelist_name": "Cell State Response",
    "cdisc_submission_value": "NON-PROLIFERATING",
    "cdisc_synonyms": null
  },
  {
    "codelist_name": "Cell State Response",
    "cdisc_submission_value": "NON-VIABLE",
    "cdisc_synonyms": null
  },
  {
    "codelist_name": "Cell State Response",
    "cdisc_submission_value": "PROLIFERATING",
    "cdisc_synonyms": null
  },
  {
    "codelist_name": "Cell State Response",
    "cdisc_submission_value": "SENESCENT",
    "cdisc_synonyms": null
  },
  {
    "codelist_name": "Cell State Response",
    "cdisc_submission_value": "VIABLE",
    "cdisc_synonyms": null
  },
  {
    "codelist_name": "Clinical Status of Disease Response",
    "cdisc_submission_value": "ACTIVE",
    "cdisc_synonyms": null
  },
  {
    "codelist_name": "Clinical Status of Disease Response",
    "cdisc_submission_value": "INACTIVE",
    "cdisc_synonyms": null
  },
  {
    "codelist_name": "Clinical Status of Disease Response",
    "cdisc_submission_value": "REMISSION",
    "cdisc_synonyms": null
  },
  {
    "codelist_name": "Clinical Status of Disease Response",
    "cdisc_submission_value": "RESOLVED",
    "cdisc_synonyms": null
  },
  {
    "codelist_name": "Collected Summarized Value Type Response",
    "cdisc_submission_value": "MAXIMUM",
    "cdisc_synonyms": null
  },
  {
    "codelist_name": "Collected Summarized Value Type Response",
    "cdisc_submission_value": "MEAN",
    "cdisc_synonyms": null
  },
  {
    "codelist_name": "Collected Summarized Value Type Response",
    "cdisc_submission_value": "MEDIAN",
    "cdisc_synonyms": null
  },
  {
    "codelist_name": "Collected Summarized Value Type Response",
    "cdisc_submission_value": "MINIMUM",
    "cdisc_synonyms": null
  },
  {
    "codelist_name": "Collected Summarized Value Type Response",
    "cdisc_submission_value": "VARIANCE",
    "cdisc_synonyms": null
  },
  {
    "codelist_name": "Commercial Sponsor Status Response",
    "cdisc_submission_value": "COMMERCIAL",
    "cdisc_synonyms": null
  },
  {
    "codelist_name": "Commercial Sponsor Status Response",
    "cdisc_submission_value": "NON-COMMERCIAL",
    "cdisc_synonyms": null
  },
  {
    "codelist_name": "Completion/Reason for Non-Completion",
    "cdisc_submission_value": "ADVERSE EVENT",
    "cdisc_synonyms": null
  },
  {
    "codelist_name": "Completion/Reason for Non-Completion",
    "cdisc_submission_value": "APPROVED DRUG AVAILABLE FOR INDICATION",
    "cdisc_synonyms": null
  },
  {
    "codelist_name": "Completion/Reason for Non-Completion",
    "cdisc_submission_value": "COMPLETED",
    "cdisc_synonyms": null
  },
  {
    "codelist_name": "Completion/Reason for Non-Completion",
    "cdisc_submission_value": "FAILURE TO MEET CONTINUATION CRITERIA",
    "cdisc_synonyms": null
  },
  {
    "codelist_name": "Completion/Reason for Non-Completion",
    "cdisc_submission_value": "FAILURE TO MEET RANDOMIZATION CRITERIA",
    "cdisc_synonyms": null
  },
  {
    "codelist_name": "Completion/Reason for Non-Completion",
    "cdisc_submission_value": "INVESTIGATOR DECISION",
    "cdisc_synonyms": null
  },
  {
    "codelist_name": "Completion/Reason for Non-Completion",
    "cdisc_submission_value": "LACK OF EFFICACY",
    "cdisc_synonyms": null
  },
  {
    "codelist_name": "Completion/Reason for Non-Completion",
    "cdisc_submission_value": "LOGISTICAL PROBLEM",
    "cdisc_synonyms": null
  },
  {
    "codelist_name": "Completion/Reason for Non-Completion",
    "cdisc_submission_value": "LOST TO FOLLOW-UP",
    "cdisc_synonyms": null
  },
  {
    "codelist_name": "Completion/Reason for Non-Completion",
    "cdisc_submission_value": "NEVER DOSED",
    "cdisc_synonyms": null
  },
  {
    "codelist_name": "Completion/Reason for Non-Completion",
    "cdisc_submission_value": "NON-COMPLIANCE WITH NON-STUDY DEVICE",
    "cdisc_synonyms": null
  },
  {
    "codelist_name": "Completion/Reason for Non-Completion",
    "cdisc_submission_value": "NON-COMPLIANCE WITH STUDY DEVICE",
    "cdisc_synonyms": null
  },
  {
    "codelist_name": "Completion/Reason for Non-Completion",
    "cdisc_submission_value": "NON-COMPLIANCE WITH STUDY DRUG",
    "cdisc_synonyms": null
  },
  {
    "codelist_name": "Completion/Reason for Non-Completion",
    "cdisc_submission_value": "NON-COMPLIANCE WITH STUDY SCHEDULE",
    "cdisc_synonyms": null
  },
  {
    "codelist_name": "Completion/Reason for Non-Completion",
    "cdisc_submission_value": "NON-COMPLIANCE",
    "cdisc_synonyms": null
  },
  {
    "codelist_name": "Completion/Reason for Non-Completion",
    "cdisc_submission_value": "PARTNER PREGNANCY",
    "cdisc_synonyms": null
  },
  {
    "codelist_name": "Completion/Reason for Non-Completion",
    "cdisc_submission_value": "PHYSICIAN DECISION",
    "cdisc_synonyms": null
  },
  {
    "codelist_name": "Completion/Reason for Non-Completion",
    "cdisc_submission_value": "PROTOCOL DEVIATION",
    "cdisc_synonyms": null
  },
  {
    "codelist_name": "Completion/Reason for Non-Completion",
    "cdisc_submission_value": "PROTOCOL VIOLATION",
    "cdisc_synonyms": null
  },
  {
    "codelist_name": "Completion/Reason for Non-Completion",
    "cdisc_submission_value": "PROTOCOL-SPECIFIED WITHDRAWAL CRITERION MET",
    "cdisc_synonyms": null
  },
  {
    "codelist_name": "Completion/Reason for Non-Completion",
    "cdisc_submission_value": "RANDOMIZED BY MISTAKE WITH STUDY TREATMENT",
    "cdisc_synonyms": null
  },
  {
    "codelist_name": "Completion/Reason for Non-Completion",
    "cdisc_submission_value": "RANDOMIZED BY MISTAKE WITHOUT STUDY TREATMENT",
    "cdisc_synonyms": null
  },
  {
    "codelist_name": "Completion/Reason for Non-Completion",
    "cdisc_submission_value": "RECOVERY",
    "cdisc_synonyms": null
  },
  {
    "codelist_name": "Completion/Reason for Non-Completion",
    "cdisc_submission_value": "REQUIRES PROHIBITED MEDICATION",
    "cdisc_synonyms": null
  },
  {
    "codelist_name": "Completion/Reason for Non-Completion",
    "cdisc_submission_value": "REQUIRES PROHIBITED PROCEDURE",
    "cdisc_synonyms": null
  },
  {
    "codelist_name": "Completion/Reason for Non-Completion",
    "cdisc_submission_value": "SCREENING NOT COMPLETED",
    "cdisc_synonyms": null
  },
  {
    "codelist_name": "Completion/Reason for Non-Completion",
    "cdisc_submission_value": "SERIOUS ADVERSE EVENT",
    "cdisc_synonyms": null
  },
  {
    "codelist_name": "Completion/Reason for Non-Completion",
    "cdisc_submission_value": "SITE TERMINATED BY SPONSOR",
    "cdisc_synonyms": null
  },
  {
    "codelist_name": "Completion/Reason for Non-Completion",
    "cdisc_submission_value": "SPONSOR REQUEST",
    "cdisc_synonyms": null
  },
  {
    "codelist_name": "Completion/Reason for Non-Completion",
    "cdisc_submission_value": "STUDY TERMINATED BY SPONSOR",
    "cdisc_synonyms": null
  },
  {
    "codelist_name": "Completion/Reason for Non-Completion",
    "cdisc_submission_value": "TECHNICAL PROBLEMS",
    "cdisc_synonyms": null
  },
  {
    "codelist_name": "Completion/Reason for Non-Completion",
    "cdisc_submission_value": "UNDERWENT PROHIBITED PROCEDURE",
    "cdisc_synonyms": null
  },
  {
    "codelist_name": "Completion/Reason for Non-Completion",
    "cdisc_submission_value": "USED PROHIBITED MEDICATION",
    "cdisc_synonyms": null
  },
  {
    "codelist_name": "Completion/Reason for Non-Completion",
    "cdisc_submission_value": "WITHDRAWAL BY PARENT/GUARDIAN",
    "cdisc_synonyms": null
  },
  {
    "codelist_name": "Contact Case Investigation Contact Type",
    "cdisc_submission_value": "CASUAL CONTACT",
    "cdisc_synonyms": null
  },
  {
    "codelist_name": "Contact Case Investigation Contact Type",
    "cdisc_submission_value": "CONTACT WITH EXPOSURE DURING MEDICAL PROCEDURE",
    "cdisc_synonyms": null
  },
  {
    "codelist_name": "Contact Case Investigation Contact Type",
    "cdisc_submission_value": "CONTACT WITH EXPOSURE IN CROWD SETTING",
    "cdisc_synonyms": null
  },
  {
    "codelist_name": "Contact Case Investigation Contact Type",
    "cdisc_submission_value": "CONTACT WITH MEDICAL RISK FACTOR",
    "cdisc_synonyms": null
  },
  {
    "codelist_name": "Contact Case Investigation Contact Type",
    "cdisc_submission_value": "HOUSEHOLD CONTACT",
    "cdisc_synonyms": null
  },
  {
    "codelist_name": "Contact Role for Clinical Study",
    "cdisc_submission_value": "CA APPLICANT",
    "cdisc_synonyms": null
  },
  {
    "codelist_name": "Contact Role for Clinical Study",
    "cdisc_submission_value": "CENTRAL CONTACT FOR RECRUITMENT BACKUP",
    "cdisc_synonyms": null
  },
  {
    "codelist_name": "Contact Role for Clinical Study",
    "cdisc_submission_value": "CENTRAL CONTACT FOR RECRUITMENT",
    "cdisc_synonyms": null
  },
  {
    "codelist_name": "Contact Role for Clinical Study",
    "cdisc_submission_value": "CLINICAL NETWORK CONTACT",
    "cdisc_synonyms": null
  },
  {
    "codelist_name": "Contact Role for Clinical Study",
    "cdisc_submission_value": "CONTACT FOR PUBLIC QUERIES",
    "cdisc_synonyms": null
  },
  {
    "codelist_name": "Contact Role for Clinical Study",
    "cdisc_submission_value": "CONTACT FOR SCIENTIFIC QUERIES",
    "cdisc_synonyms": null
  },
  {
    "codelist_name": "Contact Role for Clinical Study",
    "cdisc_submission_value": "FACILITY CONTACT BACKUP",
    "cdisc_synonyms": null
  },
  {
    "codelist_name": "Contact Role for Clinical Study",
    "cdisc_submission_value": "FACILITY CONTACT",
    "cdisc_synonyms": null
  },
  {
    "codelist_name": "Contact Role for Clinical Study",
    "cdisc_submission_value": "FURTHER INFORMATION CONTACT",
    "cdisc_synonyms": null
  },
  {
    "codelist_name": "Contact Role for Clinical Study",
    "cdisc_submission_value": "IEC APPLICANT",
    "cdisc_synonyms": null
  },
  {
    "codelist_name": "Contact Role for Clinical Study",
    "cdisc_submission_value": "INVESTIGATOR",
    "cdisc_synonyms": null
  },
  {
    "codelist_name": "Contact Role for Clinical Study",
    "cdisc_submission_value": "LEGAL REPRESENTATIVE FOR THE STUDY",
    "cdisc_synonyms": null
  },
  {
    "codelist_name": "Contact Role for Clinical Study",
    "cdisc_submission_value": "PRIMARY CONTACT",
    "cdisc_synonyms": null
  },
  {
    "codelist_name": "Contact Role for Clinical Study",
    "cdisc_submission_value": "PRINCIPAL INVESTIGATOR",
    "cdisc_synonyms": null
  },
  {
    "codelist_name": "Contact Role for Clinical Study",
    "cdisc_submission_value": "SUBCONTRACTOR CONTACT",
    "cdisc_synonyms": null
  },
  {
    "codelist_name": "Contact Role for Clinical Study",
    "cdisc_submission_value": "SUBINVESTIGATOR",
    "cdisc_synonyms": null
  },
  {
    "codelist_name": "Control Type Response",
    "cdisc_submission_value": "DOSE RESPONSE",
    "cdisc_synonyms": null
  },
  {
    "codelist_name": "Control Type Response",
    "cdisc_submission_value": "NONE",
    "cdisc_synonyms": null
  },
  {
    "codelist_name": "Coronary Artery Disease Presentation",
    "cdisc_submission_value": "STABLE ANGINA",
    "cdisc_synonyms": null
  },
  {
    "codelist_name": "Coronary Artery Disease Presentation",
    "cdisc_submission_value": "UNSTABLE ANGINA",
    "cdisc_synonyms": null
  },
  {
    "codelist_name": "Coronary Artery Disease Presentation",
    "cdisc_submission_value": "VARIANT ANGINA",
    "cdisc_synonyms": null
  },
  {
    "codelist_name": "Coronary Artery Disease Symptoms",
    "cdisc_submission_value": "ATYPICAL CORONARY ARTERY DISEASE SYMPTOMS",
    "cdisc_synonyms": null
  },
  {
    "codelist_name": "Coronary Artery Disease Symptoms",
    "cdisc_submission_value": "NO SYMPTOMS",
    "cdisc_synonyms": null
  },
  {
    "codelist_name": "Coronary Artery Disease Symptoms",
    "cdisc_submission_value": "NON-CARDIAC CHEST PAIN",
    "cdisc_synonyms": null
  },
  {
    "codelist_name": "Coronary Artery Disease Symptoms",
    "cdisc_submission_value": "TYPICAL CORONARY ARTERY DISEASE SYMPTOMS",
    "cdisc_synonyms": null
  },
  {
    "codelist_name": "Coronary Artery Dissection NHLBI Grade Responses",
    "cdisc_submission_value": "CORONARY DISSECTION NHLBI GRADE A",
    "cdisc_synonyms": null
  },
  {
    "codelist_name": "Coronary Artery Dissection NHLBI Grade Responses",
    "cdisc_submission_value": "CORONARY DISSECTION NHLBI GRADE B",
    "cdisc_synonyms": null
  },
  {
    "codelist_name": "Coronary Artery Dissection NHLBI Grade Responses",
    "cdisc_submission_value": "CORONARY DISSECTION NHLBI GRADE C",
    "cdisc_synonyms": null
  },
  {
    "codelist_name": "Coronary Artery Dissection NHLBI Grade Responses",
    "cdisc_submission_value": "CORONARY DISSECTION NHLBI GRADE D",
    "cdisc_synonyms": null
  },
  {
    "codelist_name": "Coronary Artery Dissection NHLBI Grade Responses",
    "cdisc_submission_value": "CORONARY DISSECTION NHLBI GRADE E",
    "cdisc_synonyms": null
  },
  {
    "codelist_name": "Coronary Artery Dissection NHLBI Grade Responses",
    "cdisc_submission_value": "CORONARY DISSECTION NHLBI GRADE F",
    "cdisc_synonyms": null
  },
  {
    "codelist_name": "Coronary Artery Dominance",
    "cdisc_submission_value": "CO-DOMINANT",
    "cdisc_synonyms": null
  },
  {
    "codelist_name": "Coronary Artery Dominance",
    "cdisc_submission_value": "LEFT DOMINANT",
    "cdisc_synonyms": null
  },
  {
    "codelist_name": "Coronary Artery Dominance",
    "cdisc_submission_value": "RIGHT DOMINANT",
    "cdisc_synonyms": null
  },
  {
    "codelist_name": "Coronary Thrombus TIMI Grade Responses",
    "cdisc_submission_value": "CORONARY THROMBUS TIMI GRADE 1",
    "cdisc_synonyms": null
  },
  {
    "codelist_name": "Coronary Thrombus TIMI Grade Responses",
    "cdisc_submission_value": "CORONARY THROMBUS TIMI GRADE 2",
    "cdisc_synonyms": null
  },
  {
    "codelist_name": "Coronary Thrombus TIMI Grade Responses",
    "cdisc_submission_value": "CORONARY THROMBUS TIMI GRADE 3",
    "cdisc_synonyms": null
  },
  {
    "codelist_name": "Coronary Thrombus TIMI Grade Responses",
    "cdisc_submission_value": "CORONARY THROMBUS TIMI GRADE 4",
    "cdisc_synonyms": null
  },
  {
    "codelist_name": "Coronary Thrombus TIMI Grade Responses",
    "cdisc_submission_value": "CORONARY THROMBUS TIMI GRADE 5",
    "cdisc_synonyms": null
  },
  {
    "codelist_name": "Coronary Vessel Disease Extent",
    "cdisc_submission_value": "INSIGNIFICANT DISEASE",
    "cdisc_synonyms": null
  },
  {
    "codelist_name": "Coronary Vessel Disease Extent",
    "cdisc_submission_value": "NO DISEASE",
    "cdisc_synonyms": null
  },
  {
    "codelist_name": "Coronary Vessel Disease Extent",
    "cdisc_submission_value": "ONE VESSEL DISEASE",
    "cdisc_synonyms": null
  },
  {
    "codelist_name": "Coronary Vessel Disease Extent",
    "cdisc_submission_value": "THREE VESSEL DISEASE",
    "cdisc_synonyms": null
  },
  {
    "codelist_name": "Coronary Vessel Disease Extent",
    "cdisc_submission_value": "TWO VESSEL DISEASE",
    "cdisc_synonyms": null
  },
  {
    "codelist_name": "Culture Medium Type",
    "cdisc_submission_value": "BLOOD AGAR",
    "cdisc_synonyms": null
  },
  {
    "codelist_name": "Culture Medium Type",
    "cdisc_submission_value": "CHROMOGENIC SELECTIVE MEDIUM",
    "cdisc_synonyms": null
  },
  {
    "codelist_name": "Culture Medium Type",
    "cdisc_submission_value": "KIRCHNER MEDIUM",
    "cdisc_synonyms": null
  },
  {
    "codelist_name": "Culture Medium Type",
    "cdisc_submission_value": "MB REDOX BROTH",
    "cdisc_synonyms": null
  },
  {
    "codelist_name": "Culture Medium Type",
    "cdisc_submission_value": "MIDDLEBROOK 7H10 AGAR",
    "cdisc_synonyms": null
  },
  {
    "codelist_name": "Culture Medium Type",
    "cdisc_submission_value": "MIDDLEBROOK 7H11 AGAR",
    "cdisc_synonyms": null
  },
  {
    "codelist_name": "Culture Medium Type",
    "cdisc_submission_value": "MIDDLEBROOK 7H12 BROTH",
    "cdisc_synonyms": null
  },
  {
    "codelist_name": "Culture Medium Type",
    "cdisc_submission_value": "MIDDLEBROOK 7H9 BROTH",
    "cdisc_synonyms": null
  },
  {
    "codelist_name": "Device Events Action Taken with Device",
    "cdisc_submission_value": "CALIBRATION",
    "cdisc_synonyms": null
  },
  {
    "codelist_name": "Device Events Action Taken with Device",
    "cdisc_submission_value": "REMOVAL",
    "cdisc_synonyms": null
  },
  {
    "codelist_name": "Device Events Action Taken with Device",
    "cdisc_submission_value": "REPROGRAMMING",
    "cdisc_synonyms": null
  },
  {
    "codelist_name": "Device Tracking and Disposition Event Dictionary Derived Term",
    "cdisc_submission_value": "AVAILABLE FOR RETURN",
    "cdisc_synonyms": null
  },
  {
    "codelist_name": "Device Tracking and Disposition Event Dictionary Derived Term",
    "cdisc_submission_value": "DEPLOYED",
    "cdisc_synonyms": null
  },
  {
    "codelist_name": "Device Tracking and Disposition Event Dictionary Derived Term",
    "cdisc_submission_value": "DESTROYED",
    "cdisc_synonyms": null
  },
  {
    "codelist_name": "Device Tracking and Disposition Event Dictionary Derived Term",
    "cdisc_submission_value": "DISCARDED",
    "cdisc_synonyms": null
  },
  {
    "codelist_name": "Device Tracking and Disposition Event Dictionary Derived Term",
    "cdisc_submission_value": "EXPLANTED",
    "cdisc_synonyms": null
  },
  {
    "codelist_name": "Device Tracking and Disposition Event Dictionary Derived Term",
    "cdisc_submission_value": "IMPLANTED",
    "cdisc_synonyms": null
  },
  {
    "codelist_name": "Device Tracking and Disposition Event Dictionary Derived Term",
    "cdisc_submission_value": "INTENDED BUT NOT USED",
    "cdisc_synonyms": null
  },
  {
    "codelist_name": "Device Tracking and Disposition Event Dictionary Derived Term",
    "cdisc_submission_value": "LOST",
    "cdisc_synonyms": null
  },
  {
    "codelist_name": "Device Tracking and Disposition Event Dictionary Derived Term",
    "cdisc_submission_value": "RECEIVED",
    "cdisc_synonyms": null
  },
  {
    "codelist_name": "Device Tracking and Disposition Event Dictionary Derived Term",
    "cdisc_submission_value": "RETURNED",
    "cdisc_synonyms": null
  },
  {
    "codelist_name": "Device Tracking and Disposition Event Dictionary Derived Term",
    "cdisc_submission_value": "SHIPPED",
    "cdisc_synonyms": null
  },
  {
    "codelist_name": "Device-In-Use Response",
    "cdisc_submission_value": "2-DIMENSIONAL BIPLANE MODE",
    "cdisc_synonyms": null
  },
  {
    "codelist_name": "Device-In-Use Response",
    "cdisc_submission_value": "2-DIMENSIONAL SINGLE PLANE MODE",
    "cdisc_synonyms": null
  },
  {
    "codelist_name": "Device-In-Use Response",
    "cdisc_submission_value": "3-DIMENSIONAL MODE",
    "cdisc_synonyms": null
  },
  {
    "codelist_name": "Device-In-Use Response",
