

[Page 17]
CDISC Study Data Tabulation Model Implementation Guide: Human Clinical Trials (3.4 Final) 
© 2021 Clinical Data Interchange Standards Consortium, Inc. All rights reserved  
 Page 17 
2021-11-29 
3 Submitting Data in Standard Format 
3.1 Standard Metadata for Dataset Contents and Attributes 
The SDTMIG provides standard descriptions of some of the most commonly used data domains, with metadata 
attributes. These include descriptive metadata attributes that should be included in a Define-XML document. In 
addition, the CDISC domain models include 2 shaded columns that are not sent to the FDA, but which assist 
sponsors in preparing their datasets: 
• 
The CDISC Notes column provides information regarding the relevant use of each variable. 
• 
The Core column indicates how a variable is classified (see Section 4.1.5, SDTM Core Designations). 
The domain models in Section 6, Domain Models Based on the General Observation Classes, illustrate how to apply 
the SDTM when creating a specific domain dataset. In particular, these models illustrate the selection of a subset of 
the variables offered in 1 of the general observation classes, along with applicable timing variables. The models also 
show how a standard variable from a general observation class should be adjusted to meet the specific content needs 
of a particular domain, including making the label more meaningful, specifying controlled terminology, and creating 
domain-specific notes and examples. Thus, the domain models not only demonstrate how to apply the model for the 
most common domains but also give insight on how to apply general model concepts to other domains not yet 
defined by CDISC. 
3.2 Using the CDISC Domain Models in Regulatory 
Submissions – Dataset Metadata 
The Define-XML document that accompanies a submission should also describe each dataset that is included in the 
submission and describe the natural key structure of each dataset. Most studies will include Demographics (DM) and 
a set of safety domains based on the 3 general observation classes—typically including Exposure (EX), Concomitant 
and Prior Medications (CM), Adverse Events (AE), Disposition (DS), Medical History (MH), Laboratory Test 
Results (LB), and Vital Signs (VS). However, choosing which data to submit will depend on the protocol and the 
needs of the regulatory review division or agency. Dataset definition metadata should include the dataset filenames, 
descriptions, locations, structures, class, purpose, and keys, as shown in Section 3.2.1, Dataset-level Metadata. In 
addition, comments can also be provided where needed. 
3.2.1 Dataset-level Metadata 
Note that the key variables shown in this table are examples only. A sponsor’s actual key structure may be 
different. The order of classes and datasets in this table is not intended as a normative order of datasets in a 
submission. 
 
Dataset 
Description 
Class 
Structure 
Purpose 
Keys 
Location 
CO 
Comments 
Special 
Purpose 
One record per comment per 
subject 
Tabulation STUDYID, USUBJID, 
IDVAR, COREF, CODTC 
co.xpt 
DM 
Demographics 
Special 
Purpose 
One record per subject 
Tabulation STUDYID, USUBJID 
dm.xpt 
SE 
Subject Elements 
Special 
Purpose 
One record per actual Element per 
subject 
Tabulation STUDYID, USUBJID, 
ETCD, SESTDTC 
se.xpt 
SM 
Subject Disease 
Milestones 
Special 
Purpose 
One record per Disease Milestone 
per subject 
Tabulation STUDYID, USUBJID, 
MIDS 
sm.xpt 
SV 
Subject Visits 
Special 
Purpose 
One record per actual or planned 
visit per subject 
Tabulation STUDYID, USUBJID, 
SVTERM 
sv.xpt 
AG 
Procedure Agents 
Interventions One record per recorded 
intervention occurrence per subject 
Tabulation STUDYID, USUBJID, 
AGTRT, AGSTDTC 
ag.xpt 
CM 
Concomitant/Prior 
Medications 
Interventions One record per recorded 
intervention occurrence or constant-
dosing interval per subject 
Tabulation STUDYID, USUBJID, 
CMTRT, CMSTDTC 
cm.xpt 
EC 
Exposure as 
Collected 
Interventions One record per protocol-specified 
study treatment, collected-dosing 
interval, per subject, per mood 
Tabulation STUDYID, USUBJID, 
ECTRT, ECSTDTC, 
ECMOOD 
ec.xpt 


[Page 18]
CDISC Study Data Tabulation Model Implementation Guide: Human Clinical Trials (3.4 Final) 
© 2021 Clinical Data Interchange Standards Consortium, Inc. All rights reserved  
 Page 18 
2021-11-29 
Dataset 
Description 
Class 
Structure 
Purpose 
Keys 
Location 
EX 
Exposure 
Interventions One record per protocol-specified 
study treatment, constant-dosing 
interval, per subject 
Tabulation STUDYID, USUBJID, 
EXTRT, EXSTDTC 
ex.xpt 
ML 
Meal Data 
Interventions One record per food product 
occurrence or constant intake 
interval per subject 
Tabulation STUDYID, USUBJID, 
MLTRT, MLSTDTC 
ml.xpt 
PR 
Procedures 
Interventions One record per recorded procedure 
per occurrence per subject 
Tabulation STUDYID, USUBJID, 
PRTRT, PRSTDTC 
pr.xpt 
SU 
Substance Use 
Interventions One record per substance type per 
reported occurrence per subject 
Tabulation STUDYID, USUBJID, 
SUTRT, SUSTDTC 
su.xpt 
AE 
Adverse Events 
Events 
One record per adverse event per 
subject 
Tabulation STUDYID, USUBJID, 
AEDECOD, AESTDTC 
ae.xpt 
BE 
Biospecimen Events 
Events 
One record per instance per 
biospecimen event per biospecimen 
identifier per subject 
Tabulation STUDYID, USUBJID, 
BEREFID, BETERM, 
BESDTC 
be.xpt 
CE 
Clinical Events 
Events 
One record per event per subject 
Tabulation STUDYID, USUBJID, 
CETERM, CESTDTC 
ce.xpt 
DS 
Disposition 
Events 
One record per disposition status or 
protocol milestone per subject 
Tabulation STUDYID, USUBJID, 
DSDECOD, DSSTDTC 
ds.xpt 
DV 
Protocol Deviations 
Events 
One record per protocol deviation 
per subject 
Tabulation STUDYID, USUBJID, 
DVTERM, DVSTDTC 
dv.xpt 
HO 
Healthcare 
Encounters 
Events 
One record per healthcare 
encounter per subject 
Tabulation STUDYID, USUBJID, 
HOTERM, HOSTDTC 
ho.xpt 
MH 
Medical History 
Events 
One record per medical history 
event per subject 
Tabulation STUDYID, USUBJID, 
MHDECOD 
mh.xpt 
BS 
Biospecimen 
Findings 
Findings 
One record per measurement per 
biospecimen identifier per subject 
Tabulation STUDYID, USUBJID, 
BSREFID, BSTESTCD 
bs.xpt 
CP 
Cell Phenotype 
Findings 
Findings 
One record per test per specimen 
per timepoint per visit per subject 
Tabulation STUDYID, USUBJID, 
CPTESTCD, CPSPEC, 
VISITNUM, CPTPTREF, 
CPTPTNUM 
cp.xpt 
CV 
Cardiovascular 
System Findings 
Findings 
One record per finding or result per 
time point per visit per subject 
Tabulation STUDYID, USUBJID, 
VISITNUM, CVTESTCD, 
CVTPTREF, CVTPTNUM 
cv.xpt 
DA 
Product 
Accountability 
Findings 
One record per product 
accountability finding per subject 
Tabulation STUDYID, USUBJID, 
DATESTCD, DADTC 
da.xpt 
DD 
Death Details 
Findings 
One record per finding per subject 
Tabulation STUDYID, USUBJID, 
DDTESTCD, DDDTC 
dd.xpt 
EG 
ECG Test Results 
Findings 
One record per ECG observation 
per replicate per time point or one 
record per ECG observation per 
beat per visit per subject 
Tabulation STUDYID, USUBJID, 
EGTESTCD, VISITNUM, 
EGTPTREF, 
EGTPTNUM 
eg.xpt 
FT 
Functional Tests 
Findings 
One record per Functional Test 
finding per time point per visit per 
subject 
Tabulation STUDYID, USUBJID, 
TESTCD, VISITNUM, 
FTTPTREF, FTTPTNUM 
ft.xpt 
GF 
Genomics Findings 
Findings 
One record per finding per 
observation per biospecimen per 
subject 
Tabulation STUDYID, USUBJID, 
GFTESTCD, GFSPEC, 
VISITNUM, GFTPTREF, 
GFTPTNUM 
gf.xpt 
IE 
Inclusion/Exclusion 
Criteria Not Met 
Findings 
One record per inclusion/exclusion 
criterion not met per subject 
Tabulation STUDYID, USUBJID, 
IETESTCD 
ie.xpt 
IS 
Immunogenicity 
Specimen 
Assessments 
Findings 
One record per test per visit per 
subject 
Tabulation STUDYID, USUBJID, 
ISTESTCD, ISBDAGNT, 
ISSCMBCL, ISTSTOPO, 
VISITNUM 
is.xpt 
LB 
Laboratory Test 
Results 
Findings 
One record per lab test per time 
point per visit per subject 
Tabulation STUDYID, USUBJID, 
LBTESTCD, LBSPEC, 
VISITNUM, LBTPTREF, 
LBTPTNUM 
lb.xpt 
MB 
Microbiology 
Specimen 
Findings 
One record per microbiology 
specimen finding per time point per 
visit per subject 
Tabulation STUDYID, USUBJID, 
MBTESTCD, VISITNUM, 
MBTPTREF, 
MBTPTNUM 
mb.xpt 
MI 
Microscopic Findings Findings 
One record per finding per 
specimen per subject 
Tabulation STUDYID, USUBJID, 
MISPEC, MITESTCD 
mi.xpt 
MK 
Musculoskeletal 
System Findings 
Findings 
One record per assessment per visit 
per subject 
Tabulation STUDYID, USUBJID, 
VISITNUM, MKTESTCD, 
MKLOC, MKLAT 
mk.xpt 
MS 
Microbiology 
Susceptibility 
Findings 
One record per microbiology 
susceptibility test (or other 
organism-related finding) per 
organism found in MB 
Tabulation STUDYID, USUBJID, 
MSTESTCD, VISITNUM, 
MSTPTREF, 
MSTPTNUM 
ms.xpt 


[Page 19]
CDISC Study Data Tabulation Model Implementation Guide: Human Clinical Trials (3.4 Final) 
© 2021 Clinical Data Interchange Standards Consortium, Inc. All rights reserved  
 Page 19 
2021-11-29 
Dataset 
Description 
Class 
Structure 
Purpose 
Keys 
Location 
NV 
Nervous System 
Findings 
Findings 
One record per finding per location 
per time point per visit per subject 
Tabulation STUDYID, USUBJID, 
VISITNUM, NVTPTNUM, 
NVLOC, NVTESTCD 
nv.xpt 
OE 
Ophthalmic 
Examinations 
Findings 
One record per ophthalmic finding 
per method per location, per time 
point per visit per subject 
Tabulation STUDYID, USUBJID, 
FOCID, OETESTCD, 
OETSTDTL, 
OEMETHOD, OELOC, 
OELAT, OEDIR, 
VISITNUM, OEDTC, 
OETPTREF, 
OETPTNUM, 
OEREPNUM 
oe.xpt 
PC 
Pharmacokinetics 
Concentrations 
Findings 
One record per sample 
characteristic or time-point 
concentration per reference time 
point or per analyte per subject 
Tabulation STUDYID, USUBJID, 
PCTESTCD, VISITNUM, 
PCTPTREF, PCTPTNUM 
pc.xpt 
PE 
Physical 
Examination 
Findings 
One record per body system or 
abnormality per visit per subject 
Tabulation STUDYID, USUBJID, 
PETESTCD, VISITNUM 
pe.xpt 
PP 
Pharmacokinetics 
Parameters 
Findings 
One record per PK parameter per 
time-concentration profile per 
modeling method per subject 
Tabulation STUDYID, USUBJID, 
PPTESTCD, PPCAT, 
VISITNUM, PPRFTDTC 
pp.xpt 
QS 
Questionnaires 
Findings 
One record per questionnaire per 
question per time point per visit per 
subject 
Tabulation STUDYID, USUBJID, 
QSCAT, QSSCAT, 
VISITNUM, QSTESTCD 
qs.xpt 
RE 
Respiratory System 
Findings 
Findings 
One record per finding or result per 
time point per visit per subject 
Tabulation STUDYID, USUBJID, 
VISITNUM, RETESTCD, 
RETPTNUM, 
REREPNUM 
re.xpt 
RP 
Reproductive 
System Findings 
Findings 
One record per finding or result per 
time point per visit per subject 
Tabulation STUDYID, DOMAIN, 
USUBJID, RPTESTCD, 
VISITNUM 
rp.xpt 
RS 
Disease Response 
and Clin 
Classification 
Findings 
One record per response 
assessment or clinical classification 
assessment per time point per visit 
per subject per assessor per 
medical evaluator 
Tabulation STUDYID, USUBJID, 
RSTESTCD, VISITNUM, 
RSTPTREF, 
RSTPTNUM, RSEVAL, 
RSEVALID 
rs.xpt 
SC 
Subject 
Characteristics 
Findings 
One record per characteristic per 
visit per subject. 
Tabulation STUDYID, USUBJID, 
SCTESTCD, VISITNUM 
sc.xpt 
SS 
Subject Status 
Findings 
One record per status per visit per 
subject 
Tabulation STUDYID, USUBJID, 
SSTESTCD, VISITNUM 
ss.xpt 
TR 
Tumor/Lesion 
Results 
Findings 
One record per tumor 
measurement/assessment per visit 
per subject per assessor 
Tabulation STUDYID, USUBJID, 
TRTESTCD, TREVALID, 
VISITNUM 
tr.xpt 
TU 
Tumor/Lesion 
Identification 
Findings 
One record per identified tumor per 
subject per assessor 
Tabulation STUDYID, USUBJID, 
TUEVALID, TULNKID 
tu.xpt 
UR 
Urinary System 
Findings 
Findings 
One record per finding per location 
per per visit per subject 
Tabulation STUDYID, USUBJID, 
VISITNUM, URTESTCD, 
URLOC, URLAT, URDIR 
ur.xpt 
VS 
Vital Signs 
Findings 
One record per vital sign 
measurement per time point per 
visit per subject 
Tabulation STUDYID, USUBJID, 
VSTESTCD, VISITNUM, 
VSTPTREF, VSTPTNUM 
vs.xpt 
FA 
Findings About 
Events or 
Interventions 
Findings 
About 
One record per finding, per object, 
per time point, per visit per subject 
Tabulation STUDYID, USUBJID, 
FATESTCD, FAOBJ, 
VISITNUM, FATPTREF, 
FATPTNUM 
fa.xpt 
SR 
Skin Response 
Findings 
About 
One record per finding, per object, 
per time point, per visit per subject 
Tabulation STUDYID, USUBJID, 
SRTESTCD, SROBJ, 
VISITNUM, SRTPTREF, 
SRTPTNUM 
sr.xpt 
TA 
Trial Arms 
Trial Design 
One record per planned Element 
per Arm 
Tabulation STUDYID, ARMCD, 
TAETORD 
ta.xpt 
TD 
Trial Disease 
Assessments 
Trial Design 
One record per planned constant 
assessment period 
Tabulation STUDYID, TDORDER 
td.xpt 
TE 
Trial Elements 
Trial Design 
One record per planned Element 
Tabulation STUDYID, ETCD 
te.xpt 
TI 
Trial 
Inclusion/Exclusion 
Criteria 
Trial Design 
One record per I/E criterion 
Tabulation STUDYID, IETESTCD 
ti.xpt 
TM 
Trial Disease 
Milestones 
Trial Design 
One record per Disease Milestone 
type 
Tabulation STUDYID, MIDSTYPE 
tm.xpt 
TS 
Trial Summary 
Trial Design 
One record per trial summary 
parameter value 
Tabulation STUDYID, TSPARMCD, 
TSSEQ 
ts.xpt 


[Page 20]
CDISC Study Data Tabulation Model Implementation Guide: Human Clinical Trials (3.4 Final) 
© 2021 Clinical Data Interchange Standards Consortium, Inc. All rights reserved  
 Page 20 
2021-11-29 
Dataset 
Description 
Class 
Structure 
Purpose 
Keys 
Location 
TV 
Trial Visits 
Trial Design 
One record per planned Visit per 
Arm 
Tabulation STUDYID, ARM, VISIT 
tv.xpt 
RELREC 
Related Records 
Relationship 
One record per related record, 
group of records or dataset 
Tabulation STUDYID, RDOMAIN, 
USUBJID, IDVAR, 
IDVARVAL, RELID 
relrec.xpt 
RELSPEC Related Specimens 
Relationship 
One record per specimen identifier 
per subject 
Tabulation STUDYID, USUBJID, 
REFID 
relspec.xpt 
RELSUB 
Related Subjects 
Relationship 
One record per relationship per 
related subject per subject 
Tabulation STUDYID, USUBJID, 
RSUBJID, SREL 
relsub.xpt 
SUPP-- 
Supplemental 
Qualifiers for 
[domain name] 
Relationship 
One record per supplemental 
qualifier per related parent domain 
record(s) 
Tabulation STUDYID, RDOMAIN, 
USUBJID, IDVAR, 
IDVARVAL, QNAM 
supp--.xpt 
OI 
Non-host Organism 
Identifiers 
Study 
Reference 
One record per taxon per non-host 
organism 
Tabulation NHOID, OISEQ 
oi.xpt 
 
Separate Supplemental Qualifier datasets of the form supp--.xpt are required. See Section 8.4, Relating Non-
standard Variable Values to a Parent Domain. 
 
3.2.1.1 Primary Keys 
The table in Section 3.2.1, Dataset-level Metadata, shows examples of what a sponsor might submit as variables that 
comprise the primary key for SDTM datasets. Because the purpose of the Keys column is to aid reviewers in 
understanding the structure of a dataset, sponsors should list all of the natural keys for the dataset. These keys should 
define uniqueness for records within a dataset, and may define a record sort order. The identified keys for each 
dataset should be consistent with the description of the dataset structure as described in the Define-XML document. 
For all the general observation-class domains (and for some special-purpose domains), the --SEQ variable was 
created so that a unique record could be identified consistently across all of these domains via its use, along with 
STUDYID, USUBJID, and DOMAIN. In most domains, --SEQ will be a surrogate key for a set of variables that 
comprise the natural key. In certain instances, a supplemental qualifier (SUPP--) variable might also contribute to 
the natural key of a record for a particular domain. See Section 4.1.9, Assigning Natural Keys in the Metadata, for 
how this should be represented, and for additional information on keys. 
Definitions 
A natural key is a set of data (1 or more columns of an entity) that uniquely identifies that entity and distinguishes it 
from any other row in the table. The advantage of natural keys is that they exist already; one does not need to 
introduce a new, “unnatural” value to the data schema. One of the difficulties in choosing a natural key is that just 
about any natural key one can think of has the potential to change. Because they have business meaning, natural 
keys are effectively coupled to the business, and they may need to be reworked when business requirements change. 
An example of such a change in clinical trials data would be the addition of a position or location that becomes a 
key in a new study, but which was not collected in previous studies. 
A surrogate key is a single-part, artificially established identifier for a record. Surrogate key assignment is a special 
case of derived data, one where a portion of the primary key is derived. A surrogate key is immune to changes in 
business needs. In addition, the key depends on only 1 field, so it is compact. A common way of deriving surrogate 
key values is to assign integer values sequentially. The --SEQ variable in the SDTM datasets is an example of a 
surrogate key for most datasets; in some instances, however, --SEQ might be a part of a natural key as a replacement 
for what might have been a key (e.g., a repeat sequence number) in the sponsor's database. 
3.2.1.2 CDISC Submission Value-level Metadata 
In general, findings data models are closely related to normalized, relational data models in a vertical structure of 1 
record per observation. Because general observation class data structures are fixed, sometimes information that 
might appear as columns in a more horizontal (denormalized) structure in presentations and reports will instead be 
represented as rows in an SDTM Findings structure. Because many different types of observations are all presented 
in the same structure, there is a need to provide additional metadata to describe expected properties that differentiate 
(e.g., hematology lab results from serum chemistry lab results in terms of data type, standard units, and other 
attributes). 
For example, the Vital Signs (VS) data domain could contain subject records related to diastolic and systolic blood 
pressure, height, weight, and body mass index (BMI). These data are all submitted in the normalized SDTM 


[Page 21]
CDISC Study Data Tabulation Model Implementation Guide: Human Clinical Trials (3.4 Final) 
© 2021 Clinical Data Interchange Standards Consortium, Inc. All rights reserved  
 Page 21 
2021-11-29 
Findings structure of 1 row per vital signs measurement. This means that there could be 5 records per subject (1 for 
each test or measurement) for a single visit or time point, with the parameter names stored in the Test Code/Name 
variables, and the parameter values stored in result variables. Because the unique test code/names could have 
different attributes (e.g., different origins, roles, definitions) there would be a need to provide value-level metadata 
for this information. 
The value-level metadata should be provided as a separate section of the Define-XML document. For details on the 
CDISC Define-XML standard, see https://www.cdisc.org/standards/data-exchange/define-xml. 
3.2.2 Conformance 
Conformance with the SDTMIG domain models is minimally indicated by: 
• 
Following the complete metadata structure for data domains 
• 
Following SDTMIG domain models wherever applicable 
• 
Using SDTM-specified standard domain names and prefixes where applicable 
• 
Using SDTM-specified standard variable names 
• 
Using SDTM-specified data types for all variables 
• 
Following SDTM-specified controlled terminology and format guidelines for variables, when provided 
• 
Including all collected and relevant derived data in one of the standard domains, special-purpose datasets, 
or general observation class structures 
• 
Including all Required and Expected variables as columns in standard domains, and ensuring that all 
Required variables are populated 
• 
Ensuring that each record in a dataset includes the appropriate Identifier and Timing variables, as well as a 
Topic variable 
• 
Conforming to all business rules described in the CDISC Notes column and general and domain-specific 
assumptions 
 
 


[Page 22]
CDISC Study Data Tabulation Model Implementation Guide: Human Clinical Trials (3.4 Final) 
© 2021 Clinical Data Interchange Standards Consortium, Inc. All rights reserved  
 Page 22 
2021-11-29 
4 Assumptions for Domain Models 
4.1 General Domain Assumptions 
4.1.1 Review Study Data Tabulation Model and Implementation Guide 
Review the SDTM as well as this complete implementation guide before attempting to use any of the individual 
domain models. 
4.1.2 Relationship to Analysis Datasets 
Specific guidance on preparing analysis datasets can be found in the CDISC Analysis Data Model (ADaM) 
Implementation Guide and other ADaM documents, available 
at https://www.cdisc.org/standards/foundational/adam. 
4.1.3 Additional Timing Variables 
Additional Timing variables can be added as needed to a standard domain model based on the 3 general observation 
classes, except for the cases specified in Assumption 4.4.8, Date and Time Reported in a Domain Based on 
Findings. Timing variables can be added to special-purpose domains only where specified in the SDTMIG domain 
model assumptions. Timing variables cannot be added to SUPPQUAL datasets or to RELREC (described in Section 
8, Representing Relationships and Data). 
4.1.3.1 EPOCH Variable Guidance 
When EPOCH is included in a Findings class domain, it should be based on the --DTC variable, since this is the 
date/time of the test or, for tests performed on specimens, the date/time of specimen collection. For observations in 
Interventions or Events class domains, EPOCH should be based on the --STDTC variable, since this is the start of 
the intervention or event. A possible, though unlikely, exception would be a finding based on an interval specimen 
collection that started in one epoch but ended in another.  --ENDTC might be a more appropriate basis for EPOCH 
in such a case. 
Sponsors should not impute EPOCH values, but should, where possible, assign EPOCH values on the basis of CRF 
instructions and structure, even if EPOCH was not directly collected and date/time data was not collected with 
sufficient precision to permit assignment of an observation to an EPOCH on the basis of date/time data alone. If it is 
not possible to determine the epoch of an observation, then EPOCH should be null. Methods for assigning EPOCH 
values can be described in the Define-XML document. 
Because EPOCH is a study-design construct, it is not applicable to interventions or events that started before the 
subject's participation in a study, nor to findings performed before participation in a study. For such records, 
EPOCH should be null. Note that a subject's participation in a study includes screening, which generally occurs 
before the reference start date (RFSTDTC) in the Demographics (DM) domain. 
4.1.4 Order of the Variables 
The order of variables in the Define-XML document must reflect the order of variables in the dataset. The order of 
variables in CDISC domain models has been chosen to facilitate the review of the models and application of the 
models. Variables for the 3 general observation classes must be ordered with Identifiers variables first, followed by 
Topic, Qualifier, and Timing variables. Within each role, variables must be ordered as shown in SDTM Sections 
3.1.1, The Interventions Observation Class; 3.1.2, The Events Observation Class; 3.1.3, The Findings Observation 
Class; 3.1.3.1, Findings About Events or Interventions; 3.1.4, Identifiers for All Classes; and 3.1.5, Timing 
Variables for All Classes. 
4.1.5 SDTM Core Designations 
Three categories are specified in the Core column in the domain models: 


[Page 23]
CDISC Study Data Tabulation Model Implementation Guide: Human Clinical Trials (3.4 Final) 
© 2021 Clinical Data Interchange Standards Consortium, Inc. All rights reserved  
 Page 23 
2021-11-29 
• 
A Required variable is any variable that is basic to the identification of a data record (i.e., essential key 
variables and a topic variable) or is necessary to make the record meaningful. Required variables must 
always be included in the dataset and cannot be null for any record. 
• 
An Expected variable is any variable necessary to make a record useful in the context of a specific domain. 
Expected variables may contain some null values, but in most cases will not contain null values for every 
record. When the study does not include the data item for an expected variable, however, a null column 
must still be included in the dataset, and a comment must be included in the Define-XML document to state 
that the study does not include the data item. 
• 
A Permissible variable should be used in an SDTM dataset wherever appropriate. Although domain 
specification tables list only some of the identifier, timing, and general observation class variables listed in 
the SDTM, all are permissible unless specifically restricted in this implementation guide (see Section 2.7, 
SDTM Variables Not Allowed in the SDTMIG) or by specific domain assumptions. 
o 
Domain assumptions that say a Permissible variable is "generally not used" do not prohibit use of the 
variable. 
o 
If a study includes a data item that would be represented in a Permissible variable, then 
that variable must be included in the SDTM dataset, even if null. Indicate no data were available for 
that variable in the Define-XML document. 
o 
If a study did not include a data item that would be represented in a Permissible variable, then that 
variable should not be included in the SDTM dataset and should not be declared in the Define-XML 
document. 
4.1.6 Additional Guidance on Dataset Naming 
SDTM datasets are normally named to be consistent with the domain code; for example, the Demographics dataset 
(DM) is named dm.xpt. (See the SDTM Domain Abbreviation codelist, C66734, in CDISC Controlled Terminology 
(https://www.cancer.gov/research/resources/terminology/cdisc) for standard domain codes). Exceptions to this rule 
are described in Section 4.1.7, Splitting Domains, for general observation class datasets and in Section 8, 
Representing Relationships and Data, for RELREC and SUPP-- datasets. 
In some cases, sponsors may need to define new custom domains and may be concerned that CDISC domain codes 
defined in the future will conflict with those they choose to use. To eliminate any risk of a sponsor using a name that 
CDISC later determines to have a different meaning, domain codes beginning with the letters X, Y, and Z have been 
reserved for the creation of custom domains. Any letter or number may be used in the second position. Note the use 
of codes beginning with X, Y, or Z is optional, and not required for custom domains. 
4.1.7 Splitting Domains 
Sponsors may choose to split a domain of topically related information into physically separate datasets. 
• 
A domain based on a general observation class may be split according to values in --CAT. When a domain 
is split on --CAT, --CAT must not be null. 
• 
The Findings About (FA) domain (see Section 6.4.4, Findings About Events or Interventions) may 
alternatively be split based on the domain of the value in --OBJ. For example, FACM would store findings 
about Concomitant/Prior Medications (CM) records. See Section 6.4.2, Naming Findings About Domains, 
for more details. 
The following rules must be adhered to when splitting a domain into separate datasets to ensure they can be 
appended back into 1 domain dataset: 
1. The value of DOMAIN must be consistent across the separate datasets as it would have been if they had not 
been split (e.g., QS, FA). 
2. All variables that require a domain prefix (e.g., --TESTCD, --LOC) must use the value of DOMAIN as the 
prefix value (e.g., QS, FA). 
3. --SEQ must be unique within USUBJID for all records across all the split datasets. If there are 1000 records 
for a USUBJID across the separate datasets, all 1000 records need unique values for --SEQ. 


[Page 24]
CDISC Study Data Tabulation Model Implementation Guide: Human Clinical Trials (3.4 Final) 
© 2021 Clinical Data Interchange Standards Consortium, Inc. All rights reserved  
 Page 24 
2021-11-29 
4. When relationship datasets (e.g., SUPPxx, FAxx, CO, RELREC) relate back to split parent domains, 
IDVAR would generally be --SEQ. When IDVAR is a value other than --SEQ (e.g., --GRPID, --REFID, --
SPID), care should be used to ensure that the parent records across the split datasets have unique values for 
the variable specified in IDVAR, so that related children records do not accidentally join back to incorrect 
parent records. 
5. Permissible variables included in one split dataset need not be included in all split datasets. 
6. For domains with 2-letter domain codes (i.e., other than SUPPxx and RELREC), split dataset names can be 
up to 4 characters in length. For example, if splitting by --CAT, dataset names would be the domain name 
plus up to 2 additional characters (e.g., QS36 for SF-36). If splitting Findings About by parent domain, then 
the dataset name would be the domain code, "FA", plus the 2-character domain code for parent domain 
code (e.g., "FACM"). The 4-character dataset-name limitation allows the use of a Supplemental Qualifier 
dataset associated with the split dataset. 
7. Supplemental Qualifier datasets for split domains would also be split. The nomenclature would include the 
additional 1 to 2 characters used to identify the split dataset (e.g., SUPPQS36, SUPPFACM). The value of 
RDOMAIN in the SUPP-- datasets would be the 2-character domain code (e.g., QS, FA). 
8. In RELREC, if a dataset-level relationship is defined for a split Findings About domain, then RDOMAIN 
may contain the 4-character dataset name, rather than the domain name "FA", as shown in the following 
example.  
relrec.xpt 
Row 
STUDYID 
RDOMAIN 
USUBJID 
IDVAR 
IDVARVAL 
RELTYPE 
RELID 
1 
ABC 
CM 
 
CMSPID 
 
ONE 
1 
2 
ABC 
FACM 
 
FASPID 
 
MANY 
1 
9. See the SDTM Implementation Guide: Associated Persons 
(https://www.cdisc.org/standards/foundational/sdtmig/) for the naming of split AP datasets. 
10. See the SDTM Define-XML specification (https://www.cdisc.org/standards/data-exchange/define-xml) for 
details regarding metadata representation when a domain is split into different datasets. For additional 
examples, see the Metadata Submission Guideline (MSG) for SDTMIG 
(https://www.cdisc.org/standards/foundational/sdtmig/). 
Note that submission of split SDTM domains may be subject to additional dataset-splitting conventions as defined 
by regulators via technical specifications and/or as negotiated with regulatory reviewers. 
 
4.1.7.1 Example of Splitting Questionnaires 
QRS datasets are routinely created and reviewed for the individual QRS instrument. This example shows the QS 
domain data split into 3 datasets: Clinical Global Impression (QSCG), Pain Intensity (QSPI), and Satisfaction of 
Life Scale (QSSW). Each dataset represents a subset of the QS domain data and has only 1 value of QSCAT. 


[Page 25]
CDISC Study Data Tabulation Model Implementation Guide: Human Clinical Trials (3.4 Final) 
© 2021 Clinical Data Interchange Standards Consortium, Inc. All rights reserved  
 Page 25 
2021-11-29 
QS Domains 
Dataset for Clinical Global Impressions 
qscg.xpt 
Row 
STUDYID 
DOMAIN 
USUBJID 
QSSEQ 
QSTESTCD 
QSTEST 
QSCAT 
QSORRES 
QSSTRESC 
QSSTRESN 
QSLOBXFL 
VISITNUM 
VISIT 
VISITDY 
QSDTC 
QSDY 
1 
CDISC01 
QS 
CDISC01.100008 
1 
CGI0201 
CGI02-Severity 
CGI 
Moderate 
4 
4 
Y 
1 
WEEK 1 
1 
2003-04-15 
1 
2 
CDISC01 
QS 
CDISC01.100008 
2 
CGI0201 
CGI02-Severity 
CGI 
Mild 
3 
3 
 
2 
WEEK 2 
7 
2003-04-21 
7 
3 
CDISC01 
QS 
CDISC01.100008 
3 
CGI0202 
CGI02-Change 
CGI 
Minimally Improved 
3 
3 
 
2 
WEEK 2 
7 
2003-04-21 
7 
4 
CDISC01 
QS 
CDISC01.100008 
4 
CGI0203 
CGI02-Improvement 
CGI 
A little better 
3 
3 
 
2 
WEEK 2 
7 
2003-04-21 
7 
5 
CDISC01 
QS 
CDISC01.100014 
1 
CGI0201 
CGI02-Severity 
CGI 
Moderate 
4 
4 
Y 
1 
WEEK 1 
1 
2003-04-15 
1 
6 
CDISC01 
QS 
CDISC01.100014 
2 
CGI0201 
CGI02-Severity 
CGI 
Mild 
3 
3 
 
2 
WEEK 2 
7 
2003-04-21 
7 
7 
CDISC01 
QS 
CDISC01.100014 
3 
CGI0202 
CGI02-Change 
CGI 
Minimally Improved 
3 
3 
 
2 
WEEK 2 
7 
2003-04-21 
7 
8 
CDISC01 
QS 
CDISC01.100014 
4 
CGI0203 
CGI02-Improvement 
CGI 
A little better 
3 
3 
 
2 
WEEK 2 
7 
2003-04-21 
7 
Dataset for Pain Intensity 
qspi.xpt 
Row STUDYID DOMAIN USUBJID 
QSSEQ QSTESTCD QSTEST 
QSCAT QSSCAT 
QSORRES 
QSORRESU QSSTRESC QSSTRESN QSSTRESU QSLOC QSMETHOD 
QSLOBXFL VISITNUM QSDTC 
QSDY QSEVLINT 
1 
CDISC01 QS 
CDISC01.100008 1 
PI0101 
PI01-Pain 
Intensity 
PI 
FIBROMYALGIA WORST PAIN 
IMAGINABLE 
 
100 
100 
 
BACK 
VISUAL ANALOG 
SCALE (100 MM) 
Y 
1 
2003-04-
15 
1 
-PT24H 
2 
CDISC01 QS 
CDISC01.100008 2 
PI0101 
PI01-Pain 
Intensity 
PI 
FIBROMYALGIA 50 
mm 
50 
50 
mm 
BACK 
VISUAL ANALOG 
SCALE (100 MM) 
 
2 
2003-04-
21 
7 
-PT24H 
3 
CDISC01 QS 
CDISC01.100008 3 
PI0101 
PI01-Pain 
Intensity 
PI 
FIBROMYALGIA 60 
mm 
60 
60 
mm 
BACK 
VISUAL ANALOG 
SCALE (100 MM) 
 
3 
2003-04-
28 
14 
-PT24H 
4 
CDISC01 QS 
CDISC01.100014 4 
PI0101 
PI01-Pain 
Intensity 
PI 
FIBROMYALGIA WORST PAIN 
IMAGINABLE 
 
100 
100 
 
BACK 
VISUAL ANALOG 
SCALE (100 MM) 
Y 
1 
2003-04-
15 
1 
-PT24H 
5 
CDISC01 QS 
CDISC01.100014 5 
PI0101 
PI01-Pain 
Intensity 
PI 
FIBROMYALGIA 50 
mm 
50 
50 
mm 
BACK 
VISUAL ANALOG 
SCALE (100 MM) 
 
2 
2003-04-
21 
7 
-PT24H 
6 
CDISC01 QS 
CDISC01.100014 6 
PI0101 
PI01-Pain 
Intensity 
PI 
FIBROMYALGIA 60 
mm 
60 
60 
mm 
BACK 
VISUAL ANALOG 
SCALE (100 MM) 
 
3 
2003-04-
28 
14 
-PT24H 
Dataset for Satisfaction of Life Scale 
qssw.xpt 
Row 
STUDYID 
DOMAIN 
USUBJID 
QSSEQ 
QSTESTCD 
QSTEST 
QSCAT 
QSORRES 
QSSTRESC 
QSSTRESN 
QSLOBXFL 
VISITNUM 
QSDTC 
QSDY 
1 
CDISC01 
QS 
CDISC01.100008 
1 
SWLS0101 
SWLS01-My Life is Close to Ideal 
SWLS 
Slightly agree 
5 
5 
Y 
1 
2003-04-15 
1 
2 
CDISC01 
QS 
CDISC01.100008 
2 
SWLS0102 
SWLS01-My Life Conditions are Excellent 
SWLS 
Neither agree nor disagree 
4 
4 
Y 
1 
2003-04-15 
1 
3 
CDISC01 
QS 
CDISC01.100008 
3 
SWLS0103 
SWLS01-I Am Satisfied with My Life 
SWLS 
Agree 
6 
6 
Y 
1 
2003-04-15 
1 
4 
CDISC01 
QS 
CDISC01.100008 
4 
SWLS0104 
SWLS01-Have Gotten Important Things 
SWLS 
Disagree 
2 
2 
Y 
1 
2003-04-15 
1 
5 
CDISC01 
QS 
CDISC01.100008 
5 
SWLS0105 
SWLS01-Live Life Over Change Nothing 
SWLS 
Strongly disagree 
1 
1 
Y 
1 
2003-04-15 
1 
6 
CDISC01 
QS 
CDISC01.100014 
6 
SWLS0101 
SWLS01-My Life is Close to Ideal 
SWLS 
Slightly agree 
5 
5 
Y 
1 
2003-04-15 
1 
7 
CDISC01 
QS 
CDISC01.100014 
7 
SWLS0102 
SWLS01-My Life Conditions are Excellent 
SWLS 
Neither agree nor disagree 
4 
4 
Y 
1 
2003-04-15 
1 
8 
CDISC01 
QS 
CDISC01.100014 
8 
SWLS0103 
SWLS01-I Am Satisfied with My Life 
SWLS 
Agree 
6 
6 
Y 
1 
2003-04-15 
1 
9 
CDISC01 
QS 
CDISC01.100014 
9 
SWLS0104 
SWLS01-Have Gotten Important Things 
SWLS 
Disagree 
2 
2 
Y 
1 
2003-04-15 
1 
10 
CDISC01 
QS 
CDISC01.100014 
10 
SWLS0105 
SWLS01-Live Life Over Change Nothing 
SWLS 
Strongly disagree 
1 
1 
Y 
1 
2003-04-15 
1 
SUPPQS Domains 
Supplemental Qualifiers for QSCG 
suppqscg.xpt 
Row STUDYID RDOMAIN USUBJID 
IDVAR 
IDVARVAL QNAM 
QLABEL 
QVAL 
QORIG QEVAL 
1 
CDISC01 QS 
CDISC01.100008 QSCAT CGI 
QSLANG Questionnaire Language GERMAN CRF 
 
2 
CDISC01 QS 
CDISC01.100014 QSCAT CGI 
QSLANG Questionnaire Language FRENCH CRF 
 


[Page 26]
CDISC Study Data Tabulation Model Implementation Guide: Human Clinical Trials (3.4 Final) 
© 2021 Clinical Data Interchange Standards Consortium, Inc. All rights reserved  
 Page 26 
2021-11-29 
Supplemental Qualifiers for QSPI 
suppqspi.xpt 
Row STUDYID RDOMAIN USUBJID 
IDVAR 
IDVARVAL QNAM 
QLABEL 
QVAL 
QORIG QEVAL 
1 
CDISC01 QS 
CDISC01.100008 QSTESTCD PI0101 
QSANTXLO Anchor Text Low NO PAIN 
CRF 
 
2 
CDISC01 QS 
CDISC01.100008 QSTESTCD PI0101 
QSANTXHI 
Anchor Text 
High 
WORST PAIN 
IMAGINABLE 
CRF 
 
3 
CDISC01 QS 
CDISC01.100008 QSTESTCD PI0101 
QSANVLLO Anchor Value 
Low 
0 
CRF 
 
4 
CDISC01 QS 
CDISC01.100008 QSTESTCD PI0101 
QSANVLHI 
Anchor Value 
High 
100 
CRF 
 
5 
CDISC01 QS 
CDISC01.100008 QSCAT 
PI 
QSLANG 
Questionnaire 
Language 
GERMAN 
CRF 
 
6 
CDISC01 QS 
CDISC01.100014 QSTESTCD PI0101 
QSANTXLO Anchor Text Low NO PAIN 
CRF 
 
7 
CDISC01 QS 
CDISC01.100014 QSTESTCD PI0101 
QSANTXHI 
Anchor Text 
High 
WORST PAIN 
IMAGINABLE 
CRF 
 
8 
CDISC01 QS 
CDISC01.100014 QSTESTCD PI0101 
QSANVLLO Anchor Value 
Low 
0 
CRF 
 
9 
CDISC01 QS 
CDISC01.100014 QSTESTCD PI0101 
QSANVLHI 
Anchor Value 
High 
100 
CRF 
 
10 
CDISC01 QS 
CDISC01.100014 QSCAT 
PI 
QSLANG 
Questionnaire 
Language 
FRENCH 
CRF 
 
Supplemental Qualifiers for QSSW 
suppqssw.xpt 
Row STUDYID 
RDOMAIN 
USUBJID 
IDVAR 
IDVARVAL 
QNAM 
QLABEL 
QVAL 
QORIG 
QEVAL 
1 
CDISC01 
QS 
CDISC01.100008 
QSCAT 
SWLS 
QSLANG 
Questionnaire Language 
GERMAN 
CRF 
 
2 
CDISC01 
QS 
CDISC01.100014 
QSCAT 
SWLS 
QSLANG 
Questionnaire Language 
FRENCH 
CRF 
 
4.1.8 Origin Metadata 
4.1.8.1 Origin Metadata for Variables 
The origin element in the Define-XML document file is used to indicate where the data originated. Its purpose is to 
unambiguously communicate to the reviewer the origin of the data source. For example, data could be collected (on 
the CRF, from a vendor, or from a device), derived, or assigned; CRF data should be traceable to an annotated CRF 
and derived data should be traceable to some derivation algorithm. The Define-XML specification is the definitive 
source of allowable origin values. Additional guidance and supporting examples can be referenced using the 
Metadata Submission Guidelines (MSG) for SDTMIG. 
4.1.8.2 Origin Metadata for Records 
Sponsors are cautioned to recognize that a derived origin means that all values for that variable were derived, and 
that collected on the CRF applies to all values as well. In some cases, both collected and derived values may be 
reported in the same field. For example, some records in a Findings dataset such as Questionnaires (QS) contain 
values collected from the CRF; other records may contain derived values, such as a total score. When both derived 
and collected values are reported in a variable, the origin is to be described using value-level metadata in the Define-
XML document. 
4.1.9 Assigning Natural Keys in the Metadata 
Section 3.2, Using the CDISC Domain Models in Regulatory Submissions – Dataset Metadata, indicates that a 
sponsor should include in the metadata the variables that contribute to the natural key for a domain. In a case where 
a dataset includes a mix of records with different natural keys, the natural key that provides the most granularity is 
the one that should be provided. The following example illustrates how to do this, and include a case where a 
Supplemental Qualifier variable is referenced because it forms part of the natural key. 
Musculoskeletal System Findings (MK) Domain Example 
Sponsor A chooses the following natural key for the MK domain: 
STUDYID, USUBJID, VISTNUM, MKTESTCD 
Sponsor B collects data in such a way that the location (MKLOC and MKLAT) and method (MKMETHOD) 
variables need to be included in the natural key to identify a unique row. Sponsor B then defines the following 
natural key for the MK domain. 


[Page 27]
CDISC Study Data Tabulation Model Implementation Guide: Human Clinical Trials (3.4 Final) 
© 2021 Clinical Data Interchange Standards Consortium, Inc. All rights reserved  
 Page 27 
2021-11-29 
STUDYID, USUBJID, VISITNUM, MKTESTCD, MKLOC, MKLAT, MKMETHOD 
In certain instances a Supplemental Qualifier variable (i.e., a QNAM value; see Section 8.4, Relating Non-standard 
Variable Values to a Parent Domain) might also contribute to the natural key of a record, and therefore needs to be 
referenced as part of the natural key for a domain. The important concept here is that a domain is not limited by 
physical structure. A domain may comprise more than 1 physical dataset (e.g., the main domain dataset and its 
associated Supplemental Qualifiers dataset). Supplemental Qualifier variables should be referenced in the natural 
key by using a 2-part name. The word QNAM must be used as the first part of the name to indicate that the 
contributing variable exists in a domain-specific SUPP--; the second part is the value of QNAM that ultimately 
becomes a column reference when the SUPPQUAL records are joined on to the main domain dataset (e.g., 
QNAM.XVAR when the SUPP-- record has a QNAM of "XVAR") . 
In this example, sponsor B might have collected data that used different imaging methods, using imaging devices 
with different makes and models, and using different hand positions. The sponsor considers the make and model 
information and hand position to be essential data that contributes to the uniqueness of the test result, and so 
includes a device identifier (SPDEVID) in the data and creates a Supplemental Qualifier variable for hand position 
(QNAM = "MKHNDPOS"). The natural key is then defined as follows: 
STUDYID, USUBJID, SPDEVID, VISITNUM, MKTESTCD, MKLOC, MKLAT, MKMETHOD, 
QNAM.MKHNDPOS 
where the notation "QNAM.MKHNDPOS" means the Supplemental Qualifier whose QNAM 
is "MKHNDPOS".This approach becomes very useful in a Findings domain when --TESTCD values are "generic" 
and rely on other variables to completely describe the test. The use of generic test codes helps to create distinct lists 
of manageable controlled terminology for --TESTCD. In studies where multiple repetitive tests or measurements are 
being made, for example in a rheumatoid arthritis study where repetitive measurements of bone erosion in the hands 
and wrists might be made using both X-ray and MRI equipment, the generic MKTEST "Sharp/Genant Bone Erosion 
Score" would be used in combination with other variables to fully identify the result. 
Taking just the phalanges, a sponsor might want to express the following in a test in order to make it unique: 
• 
Left or right hand 
• 
Phalangeal joint position (which finger, which joint) 
• 
Rotation of the hand 
• 
Method of measurement (x-ray or MRI) 
• 
Machine make and model 
When CDISC Controlled Terminology for a test is not available, and a sponsor creates --TEST and --TESTCD 
values, trying to encapsulate all information about a test within a unique value of a --TESTCD is not a 
recommended approach for the following reasons: 
• 
It results in the creation of a potentially large number of test codes. 
• 
The 8-character values of --TESTCD become less intuitively meaningful. 
• 
Multiple test codes are essentially representing the same test or measurement simply to accommodate 
attributes of a test within the --TESTCD value itself (e.g., to represent a body location at which a 
measurement was taken). 
As a result, the preferred approach would be to use a generic (or simple) test code that requires associated qualifier 
variables to fully express the test detail. This approach was used in creating the CDISC Controlled Terminology 
used in this example: 
The MKTESTCD value "SGBESCR" is a generic test code, and additional information about the test is provided by 
separate qualifier variables. The variables that completely specify a test may include domain variables and 
supplemental qualifier variables. Expressing the natural key becomes very important in this situation in order to 
communicate the variables that contribute to the uniqueness of a test. 
The following variables would be used to fully describe the test. The natural key for this domain includes 
both parent dataset variables and a supplemental qualifier variable that contribute to the natural key of each row and 
to describe the uniqueness of the test. 


[Page 28]
CDISC Study Data Tabulation Model Implementation Guide: Human Clinical Trials (3.4 Final) 
© 2021 Clinical Data Interchange Standards Consortium, Inc. All rights reserved 
 Page 28 
2021-11-29 
SPDEVID 
MKTESTCD MKTEST 
MKLOC 
MKLAT MKMETHOD QNAM.MKHNDPOS 
ACME3000 SGBESCR 
Sharp/Genant Bone Erosion 
Score 
METACARPOPHALANGEAL JOINT 
1 
LEFT 
X-RAY
PALM UP 
4.2 General Variable Assumptions 
4.2.1 Variable-naming Conventions 
SDTM variables are named according to a set of conventions, using fragment names (see Appendix D, CDISC 
Variable-naming Fragments). Variables with names ending in "CD" are "short" versions of associated variables that 
do not include the "CD" suffix (e.g., --TESTCD is the short version of --TEST). 
Values of --TESTCD must be limited to 8 characters and cannot start with a number, nor can they contain characters 
other than letters, numbers, or underscores. This is to avoid possible incompatibility with SAS v5 transport files. 
This limitation will be in effect until the use of other formats (e.g., Dataset-XML) becomes acceptable to regulatory 
authorities. 
Because QNAM serves the same purpose as --TESTCD within supplemental qualifier datasets, values of QNAM are 
subject to the same restrictions as values of --TESTCD. 
Values of other "CD" variables are not subject to the same restrictions as --TESTCD: 
•
ETCD (the companion to ELEMENT) and TSPARMCD (the companion to TSPARM) are limited to 8
characters and do not have the character restrictions that apply to --TESTCD. These values should be short
for ease of use in programming, but it is not expected that they will need to serve as variable names.
•
ARMCD is limited to 20 characters and does not have the character restrictions that apply to --TESTCD.
The maximum length of ARMCD is longer than for other "short" variables to accommodate the kind of
values that are likely to be needed for crossover trials. For example, if ARMCD values for a 7-period
crossover were constructed using 2-character abbreviations for each treatment and separating hyphens, the
length of ARMCD values would be 20. This same rule applies to the ACTARMCD variable.
Variable descriptive names (labels), up to 40 characters, should be provided as data variable labels for all variables, 
including Supplemental Qualifier variables. 
Use of variable names (other than domain prefixes), formats, decodes, terminology, and data types for the same type 
of data (even for custom domains and Supplemental Qualifiers) should be consistent within and across studies 
within a submission. 
4.2.2 Two-character Domain Identifier 
In order to minimize the risk of difficulty when merging/joining domains for reporting purposes, the 2-character 
domain identifier is used as a prefix in most variable names. 
Variables in domain specification tables (see Section 5, Models for Special-purpose Domains; Section 6, Domain 
Models Based on the General Observation Classes; Section 7, Trial Design Model Datasets; Section 8, Representing 
Relationships and Data; and Section 9, Study References) already specify the complete variable names. When 
adding variables from the SDTM to standard domains or creating custom domains based on the general observation 
classes, sponsors must replace the "--" prefix in the SDTM tables of General Observation Class, Timing, and 
Identifier variables with the 2-character domain identifier (DOMAIN) value for that domain/dataset. The 2-character 
domain code is limited to A-Z for the first character, and A-Z, 0-9 for the second character. No other characters are 
allowed. This is for compatibility with SAS v5 transport files and with file naming requirements as part of the 
Electronic Common Technical Document (eCTD). 
The following variables are exceptions to the philosophy that all variable names are prefixed with the domain 
identifier: 
•
Required Identifiers (STUDYID, DOMAIN, USUBJID)
•
Commonly used grouping and merge keys (e.g., VISIT, VISITNUM, VISITDY)
•
All Demographics (DM) domain variables other than DMDTC and DMDY


[Page 29]
CDISC Study Data Tabulation Model Implementation Guide: Human Clinical Trials (3.4 Final) 
© 2021 Clinical Data Interchange Standards Consortium, Inc. All rights reserved  
 Page 29 
2021-11-29 
• 
All variables in RELREC and SUPPQUAL, and some variables in the Comments and Trial Design datasets 
Required identifiers are not prefixed because they are usually used as keys when merging/joining observations. The 
--SEQ and the optional Identifiers --GRPID and --REFID are prefixed because they may be used as keys when 
relating observations across domains. 
4.2.3 Use of "Subject" and USUBJID 
"Subject" is used to generically refer to both patients and healthy volunteers in order to be consistent with the 
recommendation in FDA guidance. The term "subject" should be used consistently in all labels and Define-XML 
document comments. To identify a subject uniquely across all studies for all applications or submissions involving 
the product, a unique identifier (USUBJID) should be assigned and included in all datasets. 
The unique subject identifier (USUBJID) is required in all datasets containing subject-level data. USUBJID values 
must be unique for each trial participant (subject) across all trials in the submission. This means that no 2 or more 
subjects, across all trials in the submission, may have the same USUBJID. In addition, the same person who 
participates in multiple clinical trials (when this is known) must be assigned the same USUBJID value in all trials. 
CDISC does not recommend any specific format for the values of USUBJID, only that the values need to be unique 
for all subjects in the submission, and across multiple submissions for the same compound. Many sponsors 
concatenate values for the study, site, and subject into USUBJID, but this is not a requirement. It is acceptable to use 
any format for USUBJID, as long as the values are unique across all subjects. 
The following dm.xpt sample rows illustrate a single subject who participates in 2 studies, first in ACME01 and 
later in ACME14. Note that this is only one example of the possible values for USUBJID.  
dm.xpt 
Row 
STUDYID 
DOMAIN 
USUBJID 
SUBJID 
SITEID 
INVNAM 
1 
ACME01 
DM 
ACME01-05-001 
001 
05 
John Doe 
 
dm.xpt 
Row 
STUDYID 
DOMAIN 
USUBJID 
SUBJID 
SITEID 
INVNAM 
1 
ACME14 
DM 
ACME01-05-001 
017 
14 
Mary Smith 
 
4.2.4 Text Case in Submitted Data 
It is recommended that text data be submitted in text that is all upper case (e.g., NEGATIVE). Exceptions may 
include long text data (e.g., comment text) and values of --TEST in Findings datasets (which may be more readable 
in title case if used as labels in transposed views). Values from CDISC Controlled Terminology or external code 
systems (e.g., MedDRA, SNOMED) or response values for QRS instruments specified by the instrument 
documentation should be in the case specified by those sources, which may be mixed case. The case used in the text 
data must match the case used in the controlled terminology provided in the Define-XML document. 
4.2.5 Convention for Missing Values 
Missing values for individual data items should be represented by nulls. Conventions for representing observations 
not done, using the SDTM --STAT and --REASND variables, are addressed in Section 4.5.1.2, Tests Not Done, and 
the individual domain models. 
4.2.6 Grouping Variables and Categorization 
Grouping variables are Identifiers and Qualifiers variables—such as the --CAT (Category) and --SCAT 
(Subcategory)—that group records in the SDTM domains/datasets and can be assigned by sponsors to categorize 
topic-variable values. For example, a lab record with LBTEST = "SODIUM" might have LBCAT = "CHEMISTRY" 
and LBSCAT = "ELECTROLYTES". Values for --CAT and --SCAT should not be redundant with the domain 
name or dictionary classification provided by --DECOD and --BODSYS. 
 
 


[Page 30]
CDISC Study Data Tabulation Model Implementation Guide: Human Clinical Trials (3.4 Final) 
© 2021 Clinical Data Interchange Standards Consortium, Inc. All rights reserved  
 Page 30 
2021-11-29 
Hierarchy of Grouping Variables 
STUDYID 
DOMAIN 
--CAT 
--SCAT 
 
   USUBJID 
 
 
--GRPID 
 
 
--LNKID 
 
 
--LNKGRP 
How Grouping Variables Group Data 
For the subject 
1. All records with the same USUBJID value are a group of records that describe that subject. 
Across subjects (records with different USUBJID values) 
1. All records with the same STUDYID value are a group of records that describe that study. 
2. All records with the same DOMAIN value are a group of records that describe that domain. 
3. --CAT (Category) and --SCAT (Sub-category) values further subset groups within the domain. Generally, -
-CAT/--SCAT values have meaning within a particular domain. However, it is possible to use the same 
values for --CAT/--SCAT in related domains (e.g., MH and AE). When values are used across domains, the 
meanings should be the same. Examples of where --CAT/--SCAT may have meaning across 
domains/datasets include: 
a. 
Cases where different domains in the same general observation class contain similar conceptual 
information. Adverse Events (AE), Medical History (MH), and Clinical Events (CE), for example, are 
conceptually the same data, the only differences being when the event started relative to the study start 
and whether the event is considered a regulatory-reportable adverse event in the study. Neurotoxicities 
collected in oncology trials both as separate Medical History CRFs (MH domain) and Adverse Event 
CRFs (AE domain) could both identify/collect "Paresthesia of the left arm". In both domains, the --
CAT variable could have the value of "NEUROTOXICITY". 
b. Cases where multiple datasets are necessary to capture data about the same topic. Following the 
oncology example, the existence and start and stop date of paresthesia of the left arm may be reported 
as an adverse event (AE domain), whereas the severity of the event is captured at multiple visits and 
recorded as Findings About (FA dataset). In both cases the --CAT variable could have a value of 
"NEUROTOXICITY". 
c. 
Cases where multiple domains are necessary to capture data that were collected together and have an 
implicit relationship, perhaps identified in the Related Records (RELREC) special-purpose dataset.  
Stress-test data collection may capture the following: 
i. Information about the occurrence, start, stop, and duration of the test (in the Procedures (PR) 
domain) 
ii. Vital Signs recorded during the stress test (VS domain) 
iii. Treatments (e.g., oxygen) administered during the stress test (in an Interventions domain) 
In such cases, the data collected during the stress tests recorded in 3 separate domains may all have  
--CAT/--SCAT values (STRESS TEST) that identify that data were collected during the stress test. 
Within subjects (records with the same USUBJID values) 
1. --GRPID values further group (subset) records within USUBJID. All records in the same domain with the 
same --GRPID value are a group of records within USUBJID. Unlike --CAT and --SCAT, --GRPID values 
are not intended to have any meaning across subjects and are usually assigned during or after data 
collection. 


[Page 31]
CDISC Study Data Tabulation Model Implementation Guide: Human Clinical Trials (3.4 Final) 
© 2021 Clinical Data Interchange Standards Consortium, Inc. All rights reserved  
 Page 31 
2021-11-29 
Although --SPID and --REFID are Identifier variables, they may sometimes be used as grouping variables and may 
also have meaning across domains. 
--LNKID and --LNKGRP express values that are used to link records in separate domains. As such, these variables 
are often used in IDVAR in a RELREC relationship when there is a dataset-to-dataset relationship. 
1. --LNKID is a grouping identifier used to identify a record in one domain that is related to records in 
another domain, often forming a one-to-many relationship.  
2. --LNKGRP is a grouping identifier used to identify a group of records in one domain that is related to a 
record in another domain, often forming a many-to-one relationship. 
Differences Between Grouping Variables 
The primary distinctions between --CAT/--SCAT and --GRPID are: 
1. --CAT/--SCAT are known (identified) about the data before it is collected. 
2. --CAT/--SCAT values group data across subjects. 
3. --CAT/--SCAT may have some controlled terminology. 
4. --GRPID is usually assigned during or after data collection at the discretion of the sponsor. 
5. --GRPID groups data only within a subject. 
6. --GRPID values are sponsor-defined, and will not be subject to controlled terminology. 
Therefore, data that would be the same across subjects is usually more appropriate in --CAT/--SCAT, and data that 
would vary across subjects is usually more appropriate in --GRPID. For example, a concomitant medication 
administered as part of a known combination therapy for all subjects (e.g., "Mayo Clinic Regimen") would more 
appropriately use --CAT/--SCAT to identify the medication as part of that regimen. Groups of medications recorded 
on a Serious Adverse Event (SAE) form as treatments for the SAE would more appropriately use --GRPID because 
groupings are likely to differ across subjects. 
In domains based on the Findings general observation class, the --RESCAT variable can be used to categorize 
results after the fact. --CAT and --SCAT by contrast, are generally defined by the sponsor or used by the investigator 
at the point of collection, not after assessing the value of Findings results. 
4.2.7 Submitting Free Text from the CRF 
Sponsors often collect free-text data on a CRF to supplement a standard field. This often occurs as part of a list of 
choices accompanied by "Other, specify." The manner in which these data are submitted will vary based on their 
role. 
4.2.7.1 "Specify" Values for Non-result Qualifier Variables 
When free-text information is collected to supplement a standard non-result qualifier field, the free-text value should 
be placed in the SUPP-- dataset described in Section 8.4, Relating Non-standard Variable Values to a Parent 
Domain. When applicable, controlled terminology should be used for SUPP-- field names (QNAM) and their 
associated labels (QLABEL; see Section 8.4, Relating Non-standard Variable Values to a Parent Domain, and 
Appendix C1, Supplemental Qualifiers Name Codes). 
For example, when a description of "Other Medically Important Serious Adverse Event" category is collected on a 
CRF, the free-text description should be stored in the SUPPAE dataset. 
• 
AESMIE = "Y" 
• 
SUPPAE QNAM = "AESOSP", QLABEL = "Other Medically Important SAE", QVAL = "HIGH RISK 
FOR ADDITIONAL THROMBOSIS" 
 
 


[Page 32]
CDISC Study Data Tabulation Model Implementation Guide: Human Clinical Trials (3.4 Final) 
© 2021 Clinical Data Interchange Standards Consortium, Inc. All rights reserved  
 Page 32 
2021-11-29 
Another example is a CRF that collects reason for dose adjustment with additional free-text description: 
Reason for Dose Adjustment (EXADJ) Describe 
 
Adverse Event 
 
 
Insufficient Response 
 
 
Non-medical Reason 
 
The free-text description should be stored in the SUPPEX dataset. 
• 
EXADJ = "NONMEDICAL REASON" 
• 
SUPPEX QNAM = "EXADJDSC", QLABEL = "Reason For Dose Adjustment Description", QVAL = 
"PATIENT MISUNDERSTOOD INSTRUCTIONS" 
Note that QNAM references the "parent" variable name with the addition of "DSC". Likewise, the label 
is a modification of the parent variable label. 
When the CRF includes a list of values for a qualifier field that includes "Other" and the "Other" is supplemented 
with a "Specify" free-text field, then the manner in which the free-text "Specify" value is submitted will vary based 
on the sponsor's coding practice and analysis requirements. 
For example, consider a CRF that collects the indication for an analgesic concomitant medication (CMINDC) using 
a list of prespecified values and an "Other, specify" field : 
Indication for analgesic 
o Post-operative pain 
o Headache 
o Menstrual pain 
o Myalgia 
o Toothache 
o Other, 
specify:  ________________ 
An investigator has selected "OTHER" and specified "Broken arm". Several options are available for submission of 
this data: 
1. If the sponsor wishes to maintain controlled terminology for the CMINDC field and limit the terminology 
to the 5 prespecified choices, then the free text is placed in SUPPCM. 
CMINDC 
OTHER 
 
QNAM 
QLABEL 
QVAL 
CMINDOTH 
Other Indication 
BROKEN ARM 
2. If the sponsor wishes to maintain controlled terminology for CMINDC but will expand the terminology 
based on values seen in the "Other, specify" field, then the value of CMINDC will reflect the sponsor's 
coding decision and SUPPCM could be used to store the verbatim text. 
CMINDC 
FRACTURE 
 
QNAM 
QLABEL 
QVAL 
CMINDOTH 
Other Indication 
BROKEN ARM 
Note that the sponsor might choose a different value for CMINDC (e.g., "BONE FRACTURE") depending 
on the sponsor's coding practice and analysis requirements. 
3. If the sponsor does not require that controlled terminology be maintained and wishes for all responses to be 
stored in a single variable, then CMINDC will be used and SUPPCM is not required. 
CMINDC 
BROKEN ARM 


[Page 33]
CDISC Study Data Tabulation Model Implementation Guide: Human Clinical Trials (3.4 Final) 
© 2021 Clinical Data Interchange Standards Consortium, Inc. All rights reserved  
 Page 33 
2021-11-29 
4.2.7.2 "Specify" Values for Result Qualifier Variables 
When the CRF includes a list of values for a result field that includes "Other" and the "Other" is supplemented with 
a "Specify" free-text field, then the manner in which the free-text "Specify" value is submitted will vary based on the 
sponsor's coding practice and analysis requirements. 
For example, consider a CRF where the sponsor requests the subject's eye color: 
Eye Color 
o Brown 
o Black 
o Blue 
o Green 
o Other, specify:  ________________ 
An investigator has selected "OTHER" and specified "BLUEISH GRAY". As in the preceding discussion for non-
result qualifier values, the sponsor has several options for submission: 
1. If the sponsor wishes to maintain controlled terminology in the standard result field and limit the 
terminology to the 5 prespecified choices, then the free text is placed in --ORRES and the controlled 
terminology in --STRESC. 
SCTEST 
SCORRES 
SCSTRESC 
Eye Color 
BLUEISH GRAY 
OTHER 
2. If the sponsor wishes to maintain controlled terminology in the standard result field, but will expand the 
terminology based on values seen in the "Other, specify" field, then the free text is placed in --ORRES and 
the value of --STRESC will reflect the sponsor's coding decision. 
SCTEST 
SCORRES 
SCSTRESC 
Eye Color 
BLUEISH GRAY 
GRAY 
3. If the sponsor does not require that controlled terminology be maintained, the verbatim value will be copied 
to --STRESC. 
SCTEST 
SCORRES 
SCSTRESC 
Eye Color 
BLUEISH GRAY 
BLUEISH GRAY 
4.2.7.3 "Specify" Values for Topic Variables 
Interventions 
If a list of specific treatments is provided along with "Other, Specify", --TRT should be populated with the name of 
the treatment found in the specified text. If the sponsor wishes to distinguish between the prespecified list of 
treatments and those recorded in "Other, Specify," the --PRESP variable could be used. For example: 
Indicate which of the following 
concomitant medications 
was used to treat the subject’s 
headaches: 
o Acetaminophen 
o Aspirin 
o Ibuprofen 
o Naproxen 
o Other, 
specify:  ________________ 
If ibuprofen and diclofenac were reported, the CM dataset would include the following: 
CMTRT 
CMPRESP 
IBUPROFEN 
Y 
DICLOFENAC  
Events 
"Other, Specify" for events may be handled similarly to Interventions. --TERM should be populated with the 
description of the event found in the specified text and --PRESP could be used to distinguish between prespecified 
and free-text responses. 
 
 


[Page 34]
CDISC Study Data Tabulation Model Implementation Guide: Human Clinical Trials (3.4 Final) 
© 2021 Clinical Data Interchange Standards Consortium, Inc. All rights reserved 
 Page 34 
2021-11-29 
Findings 
"Other, Specify" for tests may be handled similarly to Interventions. --TESTCD and --TEST should be populated 
with the code and description of the test found in the specified text. If specific tests are not listed on the CRF and the 
investigator has the option of writing in tests, then the name of the test would have to be coded to ensure that all --
TESTCD and --TEST values are consistent with the test controlled terminology.For example, a lab CRF collected 
values for hemoglobin, hematocrit, and "Other, specify". The value the investigator wrote for "Other, specify" was 
"Prothrombin time" with an associated result and units. The sponsor would submit the controlled terminology for 
this test:  LBTESTCD would be "PT" and LBTEST would be "Prothrombin Time", rather than the verbatim term, 
"Prothrombin time" supplied by the investigator. 
4.2.7.4 "Specify" Values for --OBJ 
As illustrated in the following figure, when findings are collected about an event or intervention, and the name of the 
event or intervention is collected in an "Other, specify" CRF field, the value in --OBJ variable depends on whether 
the Findings record has a parent record and whether the "Other, specify" value was coded. See also Section 6.4.3, 
Variables Unique to Findings About. 
Figure. Decision Tree for Populating --OBJ 
4.2.8 Multiple Values for a Variable 
4.2.8.1 Multiple Values for an Intervention or Event Topic Variable 
If multiple values are reported for an intervention or event topic variable (e.g., --TRT in an Interventions general 
observation-class dataset or --TERM in an Events general observation-class dataset), it is expected that the sponsor 
will split the values into multiple records or otherwise resolve the multiplicity per the sponsor's data management 
standard operating procedures. For example, if an adverse event term of "Headache and nausea" or a concomitant 
medication of "Tylenol and Benadryl" is reported, sponsors will often split the original report into separate records 
and/or query the site for clarification. By the time of submission, datasets should be in conformance with the record 
structures described in the SDTMIG. 
Note: The Disposition (DS) dataset is an exception to the general rule of splitting multiple topic values into separate 
records. For DS, 1 record for each disposition or protocol milestone is permitted according to the domain structure. 
For cases of multiple reasons for discontinuation see Section 6.2.4, Disposition, assumption 5 for additional 
information. 
4.2.8.2 Multiple Values for a Findings Result Variable 
If multiple result values (--ORRES) are reported for a test in a Findings class dataset, multiple records should be 
submitted for that --TESTCD. 


[Page 35]
CDISC Study Data Tabulation Model Implementation Guide: Human Clinical Trials (3.4 Final) 
© 2021 Clinical Data Interchange Standards Consortium, Inc. All rights reserved  
 Page 35 
2021-11-29 
For example, 
• 
EGTESTCD = "SPRTARRY", EGTEST = "Supraventricular Tachyarrhythmias", EGORRES = "ATRIAL 
FIBRILLATION" 
• 
EGTESTCD = "SPRTARRY", EGTEST = "Supraventricular Tachyarrhythmias", EGORRES = "ATRIAL 
FLUTTER" 
When a finding can have multiple results, the key structure for the findings dataset must be adequate to distinguish 
between the multiple results. See Section 4.1.9, Assigning Natural Keys in the Metadata. 
4.2.8.3 Multiple Values for a Non-result Qualifier Variable 
The SDTM permits 1 value for each qualifier variable per record. If multiple values exist (e.g., due to a "Check all 
that apply" instruction on a CRF), then the value for the qualifier variable should be "MULTIPLE" and SUPP-- 
should be used to store the individual responses. It is recommended that the SUPP-- QNAM value reference the 
corresponding standard domain variable with an appended number or letter. In some cases, the standard variable 
name will be shortened to meet the 8-character variable name requirement, or it may be clearer to append a 
meaningful character string as shown in the second Adverse Events (AE) example below, where the first 3 
characters of the drug name are appended. Likewise, the QLABEL value should be similar to the standard label. The 
values stored in QVAL should be consistent with the controlled terminology associated with the standard variable. 
See Section 8.4, Relating Non-standard Variable Values to a Parent Domain, for additional guidance on maintaining 
appropriately unique QNAM values. 
The following example includes selected variables from the ae.xpt and suppae.xpt datasets for a rash with locations 
on the face, neck, and chest. 
ae.xpt 
AETERM 
AELOC 
RASH 
MULTIPLE 
suppae.xpt 
QNAM 
QLABEL 
QVAL 
AELOC1 
Location of the Reaction 1 
FACE 
AELOC2 
Location of the Reaction 2 
NECK 
AELOC3 
Location of the Reaction 3 
CHEST 
In some cases, values for QNAM and QLABEL more specific than these may be needed. 
For example, a sponsor might conduct a study with 2 study drugs (e.g., open-label study of Abcicin + Xyzamin), and 
may require the investigator assess causality and describe action taken for each drug for the rash: 
ae.xpt 
AETERM 
AEREL 
AEACN 
RASH 
MULTIPLE 
MULTIPLE 
suppae.xpt 
QNAM 
QLABEL 
QVAL 
AERELABC 
Causality of Abcicin 
POSSIBLY RELATED 
AERELXYZ 
Causality of Xyzamin 
UNLIKELY RELATED 
AEACNABC 
Action Taken with Abcicin 
DOSE REDUCED 
AEACNXYZ 
Action Taken with Xyzamin 
DOSE NOT CHANGED 
In each of these examples, the use of SUPPAE should be documented in the Define-XML document and the 
annotated CRF. The controlled terminology used should be documented as part of value-level metadata. 
If the sponsor has clearly documented that one response is of primary interest (e.g., in the CRF, protocol, or analysis 
plan), the standard domain variable may be populated with the primary response and SUPP-- may be used to store 
the secondary response(s). 
For example, if Abcicin is designated as the primary study drug in the example above: 
ae.xpt 
AETERM 
AEREL 
AEACN 
RASH 
POSSIBLY RELATED 
DOSE REDUCED 
 
 
 


[Page 36]
CDISC Study Data Tabulation Model Implementation Guide: Human Clinical Trials (3.4 Final) 
© 2021 Clinical Data Interchange Standards Consortium, Inc. All rights reserved  
 Page 36 
2021-11-29 
suppae.xpt 
QNAM 
QLABEL 
QVAL 
AERELX 
Causality of Xyzamin 
UNLIKELY RELATED 
AEACNX 
Action Taken with Xyzamin 
DOSE NOT CHANGED 
Note that in the latter case, the label for standard variables AEREL and AEACN will have no indication that they 
pertain to Abcicin. This association must be clearly documented in the metadata and annotated CRF. 
4.2.8.4 Multiple Values for a Parameter 
If multiple values (--VAL) are reported for a parameter in a Trial Design or Study Reference dataset (e.g., TS, OI), 
multiple records should be submitted for that --PARMCD. 
For example, 
• 
TSPARMCD = "TTYPE", TSPARM = "Trial Type", TSVAL = "EFFICACY" 
• 
TSPARMCD = "TTYPE", TSPARM = "Trial Type", TSVAL = "SAFETY" 
When a parameter can have multiple values, the key structure for the dataset must be adequate to distinguish 
between the multiple records. See Section 4.1.9, Assigning Natural Keys in the Metadata. 
4.2.9 Variable Lengths 
When variable length is referenced in the SDTMIG, this refers to the length in bytes of ASCII character strings. 
Very large transport files have become an issue for certain regulatory authorities (e.g., US FDA) to process. One of 
the main contributors to large file sizes has been sponsors using the maximum length of 200 for character variables. 
To help rectify this situation: 
• 
The maximum SAS v5 transport file character variable length of 200 characters should not be used unless 
necessary. 
• 
Sponsors should consider the nature of the data and apply reasonable, appropriate lengths to variables. For 
example: 
o 
The length of flags will always be 1. 
o 
--TESTCD and IDVAR will never be more than 8, so the length can always be set to 8. 
o 
The length for variables that use controlled terminology can be set to the length of the longest term. 
4.3 Coding and Controlled Terminology Assumptions 
Examples provided in the CDISC Notes column and domain examples are only examples and not intended to 
imply controlled terminology. For current CDISC Controlled Terminology, 
visit https://datascience.cancer.gov/resources/cancer-vocabulary/cdisc-terminology. 
4.3.1 Controlled Terms, Codelist or Format Column 
As of SDTMIG v3.3, controlled terminology is represented in the following ways: 
• 
A single asterisk (*) when CDISC Controlled Terminology is not currently available but the SDS Team 
expects that sponsors may have their own controlled terminology and/or the CDISC Controlled 
Terminology Team may develop controlled terminology in the future 
• 
The single applicable value for the variable DOMAIN (e.g., "PR") 
• 
The name of a CDISC codelist, represented as a hyperlink in parentheses (e.g., "(NY)") 
• 
A short reference to an external terminology (e.g., "MedDRA", "ISO 3166-1 alpha-3") 
In addition, the Controlled Terms, Codelist or Format column has been used to indicate variables that use an ISO 
8601 format. 


[Page 37]
CDISC Study Data Tabulation Model Implementation Guide: Human Clinical Trials (3.4 Final) 
© 2021 Clinical Data Interchange Standards Consortium, Inc. All rights reserved  
 Page 37 
2021-11-29 
4.3.2 Controlled Terminology Text Case 
Terms from controlled terminology should be in the case that appears the source codelist or code system (e.g., 
CDISC codelist or external code system such as MedDRA). See Section 4.2.4, Text Case in Submitted Data. 
4.3.3 Controlled Terminology Values 
The controlled terminology or a reference to the controlled terminology should be included in the Define-XML 
document file wherever applicable. All values in the permissible value set for the study should be included, whether 
or not they are represented in the submitted data. Note that a null value should not be included in the permissible 
value set. A null value is implied for any list of controlled terms unless the variable is "Required" (see Section 4.1.5, 
SDTM Core Designations). 
When a domain or dataset specification includes a codelist for a variable, not every value in that codelist may have 
been part of planned data collection; only values that were part of planned data collection should be included in the 
Define-XML document. For example, --PRESP variables are associated with the NY codelist, but only the value 
"Y" is allowed in --PRESP variables. Future versions of the Define-XML specification are expected to include 
information on representing subsets of controlled terminology. 
4.3.4 Use of Controlled Terminology and Arbitrary Number Codes 
Controlled terminology or human-readable text should be used instead of arbitrary number codes in order to reduce 
ambiguity for submission reviewers. For example, CMDECOD would contain human-readable dictionary text rather 
than a numeric code. Numeric code values may be submitted as Supplemental Qualifiers if necessary. 
4.3.5 Storing Controlled Terminology for Synonym Qualifier Variables 
• 
For events such as adverse events and medical history, populate --DECOD with the dictionary's preferred 
term and populate --BODSYS with the preferred body system name. If a dictionary is multi-axial, the value 
in --BODSYS should represent the system organ class (SOC) used for the sponsor's analysis and summary 
tables, which may not necessarily be the primary SOC. Populate --SOC with the dictionary-derived primary 
SOC. In cases where the primary SOC was used for analysis, --BODSYS and --SOC are the same. 
• 
If MedDRA is used to code events, the intermediate levels in the MedDRA hierarchy should also be 
represented in the dataset. A pair of variables has been defined for each of the levels of the hierarchy other 
than SOC and Preferred Term (PT): one to represent the text description and the other to represent the code 
value associated with it. For example, --LLT should be used to represent the Lowest Level Term text 
description and --LLTCD should be used to represent the Lowest Level Term code value. 
• 
For concomitant medications, populate CMDECOD with the drug's generic name and populate CMCLAS 
with the drug class used for the sponsor's analysis and summary tables. If coding to multiple classes, follow 
Section 4.2.8.1, Multiple Values for an Intervention or Event Topic Variable, or omit CMCLAS. 
• 
For concomitant medications, supplemental qualifiers may be used to represent additional coding 
dictionary information (e.g., a drug's ATC codes from the WHO Drug Dictionary; see Section 8.4, Relating 
Non-standard Variable Values to a Parent Domain). 
The sponsor is expected to provide the dictionary name and version used to map the terms by utilizing the Define-
XML external codelist attributes. 
4.3.6 Storing Topic Variables for General Domain Models 
The topic variable for the Interventions and Events general observation-class models is often stored as verbatim text. 
For an Events domain, the topic variable is --TERM. For an Interventions domain, the topic variable is --TRT. For a 
Findings domain, the topic variable --TESTCD should use controlled terminology (e.g., "SYSBP" for systolic blood 
pressure). If CDISC Controlled Terminology exists, it should be used; otherwise, sponsors should define their own 
controlled list of terms. If the verbatim topic variable in an Interventions or Event domain is modified to facilitate 
coding, the modified text is stored in --MODIFY. In most cases—other than Physical Examination (PE)—the 


[Page 38]
CDISC Study Data Tabulation Model Implementation Guide: Human Clinical Trials (3.4 Final) 
© 2021 Clinical Data Interchange Standards Consortium, Inc. All rights reserved  
 Page 38 
2021-11-29 
dictionary-coded text is derived into --DECOD. Because the PEORRES variable is modified instead of the topic 
variable for PE, the dictionary-derived text would be placed in PESTRESC. The variables used in each of the 
defined domains are: 
Domain Original Verbatim Modified Verbatim Standardized Value 
AE 
AETERM 
AEMODIFY 
AEDECOD 
DS 
DSTERM 
 
DSDECOD 
CM 
CMTRT 
CMMODIFY 
CMDECOD 
MH 
MHTERM 
MHMODIFY 
MHDECOD 
PE 
PEORRES 
PEMODIFY 
PESTRESC 
4.3.7 Use of "Yes" and "No" Values 
Variables where the response is "Yes" or "No" ("Y" or "N") should normally be populated for both "Y" and "N" 
responses. This eliminates confusion regarding whether a blank response indicates "N" or is a missing value. 
However, some variables are collected or derived in a manner that allows only 1 response, such as when a single 
checkbox indicates "Yes". In situations such as these, where it is unambiguous to populate only the response of 
interest, it is permissible to populate only 1 value ("Y" or "N") and leave the alternate value blank. An example of 
when it would be acceptable to use only a value of "Y" would be for Last Observation Before Exposure Flag (--
LOBXFL) variables, where "N" is not necessary to indicate that a value is not the last observation before exposure. 
Note: Permissible values for variables with controlled terms of "Y" or "N" may be extended to include "U" or 
"NA" if it is the sponsor's practice to explicitly collect or derive values indicating "Unknown" or "Not Applicable" 
for that variable. 
4.4 Actual and Relative Time Assumptions 
Timing variables (SDTM Section 3.1.5, Timing Variables for All Classes) are an essential component of all SDTM 
subject-level domain datasets. In general, all domains based on the 3 general observation classes should have at least 
1 timing variable. In the Events or Interventions general observation class, this could be the start date of the event or 
intervention. In the Findings observation class, where data are usually collected at multiple visits, at least 1 timing 
variable must be used. 
The SDTMIG requires dates and times of day to be stored according to the international standard ISO 8601 
(http://www.iso.org). ISO 8601 provides a text-based representation of dates and/or times, intervals of time, and 
durations of time. 
4.4.1 Formats for Date/Time Variables 
An SDTM DTC variable may include data that is represented in ISO 8601 format as a complete date/time, a partial 
date/time, or an incomplete date/time. 
The SDTMIG template uses ISO 8601 for calendar dates and times of day, which are expressed as follows: 
• 
YYYY-MM-DDThh:mm:ss(.n+)?(((+|-)hh:mm)|Z)? 
where: 
• 
[YYYY] = four-digit year 
• 
[MM] = two-digit representation of the month (01-12, 01=January, etc.) 
• 
[DD] = two-digit day of the month (01 through 31) 
• 
[T] = (time designator) indicates time information follows 
• 
[hh] = two digits of hour (00 through 23) (am/pm is NOT allowed) 
• 
[mm] = two digits of minute (00 through 59) 
• 
[ss] = two digits of second (00 through 59) 
The last two components, indicated in the format pattern with a question mark, are optional: 


[Page 39]
CDISC Study Data Tabulation Model Implementation Guide: Human Clinical Trials (3.4 Final) 
© 2021 Clinical Data Interchange Standards Consortium, Inc. All rights reserved  
 Page 39 
2021-11-29 
• 
[(.n+)?] = optional fractions of seconds 
• 
[(((+|-)hh:mm)|Z)?] = optional time zone 
Other characters defined for use within the ISO 8601 standard are: 
• 
[-] (hyphen): to separate the time elements "year" from "month" and "month" from "day" and to represent 
missing date components. 
• 
[:] (colon): to separate the time elements "hour" from "minute" and "minute" from "second" 
• 
[/] (solidus): to separate components in the representation of date/time intervals 
• 
[P] (duration designator): precedes the components that represent the duration 
Spaces are not allowed in any ISO 8601 representations. 
Key aspects of the ISO 8601 standard are as follows: 
• 
ISO 8601 represents dates as a text string using the notation YYYY-MM-DD. 
• 
ISO 8601 represents times as a text string using the notation hh:mm:ss(.n+)?(((+|-)hh:mm)|Z)?. 
• 
The SDTM and the SDTMIG require use of the ISO 8601 extended format, which requires hyphen 
delimiters for date components and colon delimiters for time components. The ISO 8601 basic format, 
which does not require delimiters, should not be used in SDTM datasets. 
• 
When a date is stored with a time in the same variable (as a date/time), the date is written in front of the 
time and the time is preceded with "T" using the notation YYYY-MM-DDThh:mm:ss (e.g. 2001-12-
26T00:00:01). 
Implementation of the ISO 8601 standard means that date/time variables are character/text data types. The SDTM 
fragment employed for date/time character variables is DTC. 
4.4.2 Date/Time Precision 
The concept of representing date/time precision is handled through use of the ISO 8601 standard. According to ISO 
8601, precision (also referred to by ISO 8601 as "completeness" or "representations with reduced accuracy") can be 
inferred from the presence or absence of components in the date and/or time values. Missing components are 
represented by right truncation or a hyphen (for intermediate components that are missing). If the date and time 
values are completely missing, the SDTM date field should be null. Every component except year is represented as 2 
digits. Years are represented as 4 digits; for all other components, 1-digit numbers are always padded with a leading 
zero. 
The following table provides examples of ISO 8601 representations of complete and truncated date/time values 
using ISO 8601 "appropriate right truncations" of incomplete date/time representations. Note that if no time 
component is represented, the [T] time designator (in addition to the missing time) must be omitted in ISO 8601 
representation. 
 
Date and Time as Originally Recorded Precision 
ISO 8601 Date/Time 
1 December 15, 2003 13:14:17.123 
Date/time, including fractional seconds 2003-12-15T13:14:17.123 
2 December 15, 2003 13:14:17 
Date/time to the nearest second 
2003-12-15T13:14:17 
3 December 15, 2003 13:14 
Unknown seconds 
2003-12-15T13:14 
4 December 15, 2003 13 
Unknown minutes and seconds 
2003-12-15T13 
5 December 15, 2003 
Unknown time 
2003-12-15 
6 December, 2003 
Unknown day and time 
2003-12 
7 2003 
Unknown month, day, and time 
2003 
This date and date/time model also provides for imprecise or estimated dates, such as those commonly seen in 
Medical History. To represent these intervals while applying the ISO 8601 standard, it is recommended that the 
sponsor concatenate the date/time values (using the most complete representation of the date/time known) that 
describe the beginning and the end of the interval of uncertainty and separate them with a solidus, as shown in the 
following table. 


[Page 40]
CDISC Study Data Tabulation Model Implementation Guide: Human Clinical Trials (3.4 Final) 
© 2021 Clinical Data Interchange Standards Consortium, Inc. All rights reserved  
 Page 40 
2021-11-29 
 
Interval of Uncertainty 
ISO 8601 Date/Time 
1 Between 10:00 and 10:30 on the morning of December 15, 2003 
2003-12-15T10:00/2003-12-15T10:30 
2 Between the first of this year (2003) until "now" (February 15, 2003) 2003-01-01/2003-02-15 
3 Between the first and the tenth of December, 2003 
2003-12-01/2003-12-10 
4 Sometime in the first half of 2003 
2003-01-01/2003-06-30 
Other uncertainty intervals may be represented by the omission of components of the date when these components 
are unknown or missing. As previously mentioned, ISO 8601 represents missing intermediate components through 
the use of a hyphen where the missing component would normally be represented. This may be used in addition to 
"appropriate right truncations" for incomplete date/time representations. When components are omitted, the 
expected delimiters must still be kept in place and only a single hyphen is to be used to indicate an omitted 
component. Examples of this method of omitted component representation are shown in the following table. 
  Date and Time as Originally Recorded 
Level of Uncertainty 
ISO 8601 
Date/Time 
1 December 15, 2003 13:15:17 
Date/time to the nearest second 
2003-12-
15T13:15:17 
2 December 15, 2003 ??:15 
Unknown hour with known minutes 
2003-12-15T-:15 
3 December 15, 2003 13:??:17 
Unknown minutes with known date, hours, and 
seconds 
2003-12-15T13:-:17 
4 The 15th of some month in 2003, time not collected 
Unknown month and time with known year and 
day 
2003---15 
5 December 15, but can't remember the year, time not 
collected 
Unknown year with known month and day 
--12-15 
6 7:15 of some unknown date 
Unknown date with known hour and minute 
-----T07:15 
Note that row 6, where a time is reported with no date information, represents a very unusual situation. Because 
most data are collected as part of a visit, when only a time appears on a CRF, it is expected that the date of the visit 
would usually be used as the date of collection. 
Using a character-based data type to implement the ISO 8601 date/time standard will ensure that the date/time 
information will be machine- and human-readable without the need for further manipulation, and will be platform- 
and software-independent. 
4.4.3 Intervals of Time and Use of Duration for --DUR Variables 
4.4.3.1 Intervals of Time and Use of Duration 
As defined by ISO 8601, an interval of time is the part of a time axis, limited by 2 time "instants" such as the times 
represented in SDTM by the variables --STDTC and --ENDTC. These variables represent the 2 instants that bound 
an interval of time; the duration is the quantity of time that is equal to the difference between these time points. 
ISO 8601 allows an interval to be represented in multiple ways. One representation, shown below, uses 2 dates in 
the format: 
YYYY-MM-DDThh:mm:ss/YYYY-MM-DDThh:mm:ss 
Although this example represents the interval (by providing the start date/time and end date/time to bound the 
interval of time), it does not provide the value of the duration (the quantity of time). 
Duration is frequently used during a review; however, the duration timing variable (--DUR) should generally be 
used in a domain if it was collected in lieu of a start date/time (--STDTC) and end date/time (--ENDTC). If both --
STDTC and --ENDTC are collected, durations can be calculated by the difference in these 2 values, and need not be 
in the submission dataset. 
Both duration and duration units can be provided in the single --DUR variable, in accordance with the ISO 8601 
standard. The values provided in --DUR should follow 1 of the following ISO 8601 duration formats: 
PnYnMnDTnHnMnS 
- or - 
PnW 
where the letter designation is defined as: 
• 
[P] (duration designator): precedes the alphanumeric text string that represents the duration. Note that the 
use of the character "P" is based on the historical use of the term "period" for duration. 
