{
  "total_pages": 461,
  "toc": [
    [
      1,
      "SDTM Implementation Guide: Human Clinical Trials v3.4",
      1
    ],
    [
      1,
      "Contents",
      2
    ],
    [
      1,
      "1 Introduction",
      7
    ],
    [
      2,
      "1.1 Purpose",
      7
    ],
    [
      2,
      "1.2 Organization of this Document",
      7
    ],
    [
      2,
      "1.3 Relationship to Prior CDISC Documents",
      7
    ],
    [
      2,
      "1.4 How to Read this Implementation Guide",
      8
    ],
    [
      3,
      "1.4.1 How to Read a Domain Specification",
      9
    ],
    [
      2,
      "1.5 Known Issues",
      10
    ],
    [
      1,
      "2 Fundamentals of the SDTM",
      11
    ],
    [
      2,
      "2.1 Observations and Variables",
      11
    ],
    [
      2,
      "2.2 Datasets and Domains",
      11
    ],
    [
      2,
      "2.3 The General Observation Classes",
      12
    ],
    [
      2,
      "2.4 Datasets Other than General Observation Class Domains",
      12
    ],
    [
      2,
      "2.5 The SDTM Standard Domain Models",
      13
    ],
    [
      2,
      "2.6 Creating a New Domain",
      13
    ],
    [
      2,
      "2.7 SDTM Variables Not Allowed in the SDTMIG",
      15
    ],
    [
      1,
      "3 Submitting Data in Standard Format",
      17
    ],
    [
      2,
      "3.1 Standard Metadata for Dataset Contents and Attributes",
      17
    ],
    [
      2,
      "3.2 Using the CDISC Domain Models in Regulatory Submissions – Dataset Metadata",
      17
    ],
    [
      3,
      "3.2.1 Dataset-level Metadata",
      17
    ],
    [
      4,
      "3.2.1.1 Primary Keys",
      20
    ],
    [
      4,
      "3.2.1.2 CDISC Submission Value-level Metadata",
      20
    ],
    [
      3,
      "3.2.2 Conformance",
      21
    ],
    [
      1,
      "4 Assumptions for Domain Models",
      22
    ],
    [
      2,
      "4.1 General Domain Assumptions",
      22
    ],
    [
      3,
      "4.1.1 Review Study Data Tabulation Model and Implementation Guide",
      22
    ],
    [
      3,
      "4.1.2 Relationship to Analysis Datasets",
      22
    ],
    [
      3,
      "4.1.3 Additional Timing Variables",
      22
    ],
    [
      4,
      "4.1.3.1 EPOCH Variable Guidance",
      22
    ],
    [
      3,
      "4.1.4 Order of the Variables",
      22
    ],
    [
      3,
      "4.1.5 SDTM Core Designations",
      22
    ],
    [
      3,
      "4.1.6 Additional Guidance on Dataset Naming",
      23
    ],
    [
      3,
      "4.1.7 Splitting Domains",
      23
    ],
    [
      4,
      "4.1.7.1 Example of Splitting Questionnaires",
      24
    ],
    [
      3,
      "4.1.8 Origin Metadata",
      26
    ],
    [
      4,
      "4.1.8.1 Origin Metadata for Variables",
      26
    ],
    [
      4,
      "4.1.8.2 Origin Metadata for Records",
      26
    ],
    [
      3,
      "4.1.9 Assigning Natural Keys in the Metadata",
      26
    ],
    [
      2,
      "4.2 General Variable Assumptions",
      28
    ],
    [
      3,
      "4.2.1 Variable-naming Conventions",
      28
    ],
    [
      3,
      "4.2.2 Two-character Domain Identifier",
      28
    ],
    [
      3,
      "4.2.3 Use of \"Subject\" and USUBJID",
      29
    ],
    [
      3,
      "4.2.4 Text Case in Submitted Data",
      29
    ],
    [
      3,
      "4.2.5 Convention for Missing Values",
      29
    ],
    [
      3,
      "4.2.6 Grouping Variables and Categorization",
      29
    ],
    [
      3,
      "4.2.7 Submitting Free Text from the CRF",
      31
    ],
    [
      4,
      "4.2.7.1 \"Specify\" Values for Non-result Qualifier Variables",
      31
    ],
    [
      4,
      "4.2.7.2 \"Specify\" Values for Result Qualifier Variables",
      33
    ],
    [
      4,
      "4.2.7.3 \"Specify\" Values for Topic Variables",
      33
    ],
    [
      4,
      "4.2.7.4 \"Specify\" Values for --OBJ",
      34
    ],
    [
      3,
      "4.2.8 Multiple Values for a Variable",
      34
    ],
    [
      4,
      "4.2.8.1 Multiple Values for an Intervention or Event Topic Variable",
      34
    ],
    [
      4,
      "4.2.8.2 Multiple Values for a Findings Result Variable",
      34
    ],
    [
      4,
      "4.2.8.3 Multiple Values for a Non-result Qualifier Variable",
      35
    ],
    [
      4,
      "4.2.8.4 Multiple Values for a Parameter",
      36
    ],
    [
      3,
      "4.2.9 Variable Lengths",
      36
    ],
    [
      2,
      "4.3 Coding and Controlled Terminology Assumptions",
      36
    ],
    [
      3,
      "4.3.1 Controlled Terms, Codelist or Format Column",
      36
    ],
    [
      3,
      "4.3.2 Controlled Terminology Text Case",
      37
    ],
    [
      3,
      "4.3.3 Controlled Terminology Values",
      37
    ],
    [
      3,
      "4.3.4 Use of Controlled Terminology and Arbitrary Number Codes",
      37
    ],
    [
      3,
      "4.3.5 Storing Controlled Terminology for Synonym Qualifier Variables",
      37
    ],
    [
      3,
      "4.3.6 Storing Topic Variables for General Domain Models",
      37
    ],
    [
      3,
      "4.3.7 Use of \"Yes\" and \"No\" Values",
      38
    ],
    [
      2,
      "4.4 Actual and Relative Time Assumptions",
      38
    ],
    [
      3,
      "4.4.1 Formats for Date/Time Variables",
      38
    ],
    [
      3,
      "4.4.2 Date/Time Precision",
      39
    ],
    [
      3,
      "4.4.3 Intervals of Time and Use of Duration for --DUR Variables",
      40
    ],
    [
      4,
      "4.4.3.1 Intervals of Time and Use of Duration",
      40
    ],
    [
      4,
      "4.4.3.2 Interval with Uncertainty",
      41
    ],
    [
      3,
      "4.4.4 Use of the Study Day Variables",
      41
    ],
    [
      3,
      "4.4.5 Clinical Encounters and Visits",
      42
    ],
    [
      3,
      "4.4.6 Representing Additional Study Days",
      43
    ],
    [
      3,
      "4.4.7 Use of Relative Timing Variables",
      43
    ],
    [
      3,
      "4.4.8 Date and Time Reported in a Domain Based on Findings",
      45
    ],
    [
      3,
      "4.4.9 Use of Dates as Result Variables",
      45
    ],
    [
      3,
      "4.4.10 Representing Time Points",
      46
    ],
    [
      3,
      "4.4.11 Disease Milestones and Disease Milestone Timing Variables",
      48
    ],
    [
      2,
      "4.5 Other Assumptions",
      51
    ],
    [
      3,
      "4.5.1 Original and Standardized Results of Findings and Tests Not Done",
      51
    ],
    [
      4,
      "4.5.1.1 Original and Standardized Results",
      51
    ],
    [
      4,
      "4.5.1.2 Tests Not Done",
      52
    ],
    [
      4,
      "4.5.1.3 Examples of Original and Standard Units and Test Not Done",
      52
    ],
    [
      3,
      "4.5.2 Linking Multiple Observations",
      54
    ],
    [
      3,
      "4.5.3 Text Strings that Exceed the Maximum Length for General Observation-class Domain Variables",
      54
    ],
    [
      4,
      "4.5.3.1 Test Name (--TEST) Greater than 40 Characters",
      54
    ],
    [
      4,
      "4.5.3.2 Text Strings Greater than 200 Characters in Other Variables",
      55
    ],
    [
      3,
      "4.5.4 Evaluators in the Interventions and Events Observation Classes",
      56
    ],
    [
      3,
      "4.5.5 Clinical Significance for Findings Observation Class Data",
      57
    ],
    [
      3,
      "4.5.6 Supplemental Reason Variables",
      57
    ],
    [
      3,
      "4.5.7 Presence or Absence of Prespecified Interventions and Events",
      57
    ],
    [
      3,
      "4.5.8 Accounting for Long-term Follow-up",
      58
    ],
    [
      3,
      "4.5.9 Baseline Values",
      59
    ],
    [
      1,
      "5 Models for Special-purpose Domains",
      60
    ],
    [
      2,
      "5.1 Comments (CO)",
      60
    ],
    [
      2,
      "5.2 Demographics (DM)",
      62
    ],
    [
      2,
      "5.3 Subject Elements (SE)",
      79
    ],
    [
      2,
      "5.4 Subject Disease Milestones (SM)",
      84
    ],
    [
      2,
      "5.5 Subject Visits (SV)",
      86
    ],
    [
      1,
      "6 Domain Models Based on the General Observation Classes",
      92
    ],
    [
      2,
      "6.1 Models for Interventions Domains",
      92
    ],
    [
      3,
      "6.1.1 Procedure Agents (AG)",
      92
    ],
    [
      3,
      "6.1.2 Concomitant/Prior Medications (CM)",
      98
    ],
    [
      3,
      "6.1.3 Exposure Domains",
      103
    ],
    [
      4,
      "6.1.3.1 Exposure (EX)",
      104
    ],
    [
      4,
      "6.1.3.2 Exposure as Collected (EC)",
      107
    ],
    [
      4,
      "6.1.3.3 Exposure/Exposure as Collected Examples",
      111
    ],
    [
      3,
      "6.1.4 Meal Data (ML)",
      121
    ],
    [
      3,
      "6.1.5 Procedures (PR)",
      125
    ],
    [
      3,
      "6.1.6 Substance Use (SU)",
      129
    ],
    [
      2,
      "6.2 Models for Events Domains",
      133
    ],
    [
      3,
      "6.2.1 Adverse Events (AE)",
      133
    ],
    [
      3,
      "6.2.2 Biospecimen Events (BE)",
      143
    ],
    [
      3,
      "6.2.3 Clinical Events (CE)",
      148
    ],
    [
      3,
      "6.2.4 Disposition (DS)",
      155
    ],
    [
      3,
      "6.2.5 Healthcare Encounters (HO)",
      167
    ],
    [
      3,
      "6.2.6 Medical History (MH)",
      171
    ],
    [
      3,
      "6.2.7 Protocol Deviations (DV)",
      178
    ],
    [
      2,
      "6.3 Models for Findings Domains",
      180
    ],
    [
      3,
      "6.3.1 Product Accountability (DA)",
      180
    ],
    [
      3,
      "6.3.2 Death Details (DD)",
      183
    ],
    [
      3,
      "6.3.3 ECG Test Results (EG)",
      185
    ],
    [
      3,
      "6.3.4 Inclusion/Exclusion Criteria Not Met (IE)",
      193
    ],
    [
      3,
      "6.3.5 Specimen-based Findings Domains",
      194
    ],
    [
      4,
      "6.3.5.1 Generic Specimen-based Lab Findings Domain Specification",
      194
    ],
    [
      4,
      "6.3.5.2 Biospecimen Findings (BS)",
      196
    ],
    [
      4,
      "6.3.5.3 Cell Phenotype Findings (CP)",
      199
    ],
    [
      4,
      "6.3.5.4 Genomics Findings (GF)",
      220
    ],
    [
      4,
      "6.3.5.5 Immunogenicity Specimen Assessments (IS)",
      228
    ],
    [
      4,
      "6.3.5.6 Laboratory Test Results (LB)",
      241
    ],
    [
      4,
      "6.3.5.7 Microbiology Domains",
      248
    ],
    [
      5,
      "6.3.5.7.1 Microbiology Specimen (MB)",
      248
    ],
    [
      5,
      "6.3.5.7.2 Microbiology Susceptibility (MS)",
      252
    ],
    [
      5,
      "6.3.5.7.3 Microbiology Specimen/Microbiology Susceptibility Examples",
      256
    ],
    [
      4,
      "6.3.5.8 Microscopic Findings (MI)",
      263
    ],
    [
      4,
      "6.3.5.9 Pharmacokinetics Domains",
      267
    ],
    [
      5,
      "6.3.5.9.1 Pharmacokinetics Concentrations (PC)",
      267
    ],
    [
      5,
      "6.3.5.9.2 Pharmacokinetics Parameters (PP)",
      271
    ],
    [
      5,
      "6.3.5.9.3 Relating PP Records to PC Records",
      275
    ],
    [
      3,
      "6.3.6 Morphology (MO)",
      285
    ],
    [
      3,
      "6.3.7 Morphology/Physiology Domains",
      285
    ],
    [
      4,
      "6.3.7.1 Generic Morphology/Physiology Specification",
      285
    ],
    [
      4,
      "6.3.7.2 Cardiovascular System Findings (CV)",
      286
    ],
    [
      4,
      "6.3.7.3 Musculoskeletal System Findings (MK)",
      290
    ],
    [
      4,
      "6.3.7.4 Nervous System Findings (NV)",
      294
    ],
    [
      4,
      "6.3.7.5 Ophthalmic Examinations (OE)",
      298
    ],
    [
      4,
      "6.3.7.6 Reproductive System Findings (RP)",
      305
    ],
    [
      4,
      "6.3.7.7 Respiratory System Findings (RE)",
      308
    ],
    [
      4,
      "6.3.7.8 Urinary System Findings (UR)",
      312
    ],
    [
      3,
      "6.3.8 Physical Examination (PE)",
      315
    ],
    [
      3,
      "6.3.9 Questionnaires, Ratings, and Scales (QRS) Domains (FT, QS, RS)",
      318
    ],
    [
      4,
      "6.3.9.1 Functional Tests (FT)",
      319
    ],
    [
      4,
      "6.3.9.2 Questionnaires (QS)",
      324
    ],
    [
      4,
      "6.3.9.3 Disease Response and Clin Classification (RS)",
      329
    ],
    [
      5,
      "6.3.9.3.1 Disease Response Use Case",
      332
    ],
    [
      5,
      "6.3.9.3.2 Clinical Classifications Use Case",
      336
    ],
    [
      3,
      "6.3.10 Subject Characteristics (SC)",
      339
    ],
    [
      3,
      "6.3.11 Subject Status (SS)",
      342
    ],
    [
      3,
      "6.3.12 Tumor/Lesion Domains",
      344
    ],
    [
      4,
      "6.3.12.1 Tumor/Lesion Identification (TU)",
      344
    ],
    [
      4,
      "6.3.12.2 Tumor/Lesion Results (TR)",
      350
    ],
    [
      4,
      "6.3.12.3 Tumor Identification/Tumor Results Examples",
      353
    ],
    [
      3,
      "6.3.13 Vital Signs (VS)",
      358
    ],
    [
      2,
      "6.4 Findings About Events or Interventions",
      361
    ],
    [
      3,
      "6.4.1 When to Use Findings About Events or Interventions",
      361
    ],
    [
      3,
      "6.4.2 Naming Findings About Domains",
      363
    ],
    [
      3,
      "6.4.3 Variables Unique to Findings About",
      364
    ],
    [
      3,
      "6.4.4 Findings About Events or Interventions (FA)",
      364
    ],
    [
      3,
      "6.4.5 Skin Response (SR)",
      375
    ],
    [
      1,
      "7 Trial Design Model Datasets",
      382
    ],
    [
      2,
      "7.1 Introduction to Trial Design Model Datasets",
      382
    ],
    [
      3,
      "7.1.1 Purpose of the Trial Design Model",
      382
    ],
    [
      3,
      "7.1.2 Definitions of Trial Design Concepts",
      382
    ],
    [
      3,
      "7.1.3 Current and Future Contents of the Trial Design Model",
      383
    ],
    [
      2,
      "7.2 Experimental Design (TA and TE)",
      384
    ],
    [
      3,
      "7.2.1 Trial Arms (TA)",
      384
    ],
    [
      4,
      "7.2.1.1 Trial Arms Issues",
      402
    ],
    [
      3,
      "7.2.2 Trial Elements (TE)",
      402
    ],
    [
      4,
      "7.2.2.1 Trial Elements Issues",
      405
    ],
    [
      2,
      "7.3 Schedule for Assessments (TV, TD, and TM)",
      407
    ],
    [
      3,
      "7.3.1 Trial Visits (TV)",
      407
    ],
    [
      4,
      "7.3.1.1 Trial Visits Issues",
      409
    ],
    [
      3,
      "7.3.2 Trial Disease Assessments (TD)",
      410
    ],
    [
      3,
      "7.3.3 Trial Disease Milestones (TM)",
      415
    ],
    [
      2,
      "7.4 Trial Eligibility and Summary (TI and TS)",
      415
    ],
    [
      3,
      "7.4.1 Trial Inclusion/Exclusion Criteria (TI)",
      416
    ],
    [
      3,
      "7.4.2 Trial Summary (TS)",
      417
    ],
    [
      4,
      "7.4.2.1 Use of Null Flavor",
      424
    ],
    [
      2,
      "7.5 How to Model the Design of a Clinical Trial",
      425
    ],
    [
      1,
      "8 Representing Relationships and Data",
      427
    ],
    [
      2,
      "8.1 Relating Groups of Records Within a Domain Using the --GRPID Variable",
      428
    ],
    [
      3,
      "8.1.1 --GRPID Example",
      428
    ],
    [
      2,
      "8.2 Relating Peer Records",
      429
    ],
    [
      3,
      "8.2.1 Related Records (RELREC)",
      429
    ],
    [
      3,
      "8.2.2 RELREC Dataset Examples",
      430
    ],
    [
      2,
      "8.3 Relating Datasets",
      430
    ],
    [
      3,
      "8.3.1 RELREC Dataset Relationship Example",
      431
    ],
    [
      2,
      "8.4 Relating Non-standard Variable Values to a Parent Domain",
      431
    ],
    [
      3,
      "8.4.1 Supplemental Qualifiers (SUPP--)",
      432
    ],
    [
      3,
      "8.4.2 Submitting Supplemental Qualifiers in Separate Datasets",
      433
    ],
    [
      3,
      "8.4.3 SUPP-- Examples",
      433
    ],
    [
      3,
      "8.4.4 When Not to Use Supplemental Qualifiers",
      434
    ],
    [
      2,
      "8.5 Relating Comments to a Parent Domain",
      434
    ],
    [
      2,
      "8.6 How to Determine Where Data Belong in SDTM-Compliant Data Tabulations",
      435
    ],
    [
      3,
      "8.6.1 Guidelines for Determining the General Observation Class",
      435
    ],
    [
      3,
      "8.6.2 Guidelines for Forming New Domains",
      435
    ],
    [
      3,
      "8.6.3 Guidelines for Differentiating Between Interventions, Events, Findings, and Findings About Events or Interventions",
      436
    ],
    [
      2,
      "8.7 Related Subjects (RELSUB)",
      437
    ],
    [
      2,
      "8.8 Related Specimens (RELSPEC)",
      439
    ],
    [
      1,
      "9 Study References",
      441
    ],
    [
      2,
      "9.1 Device Identifiers",
      441
    ],
    [
      2,
      "9.2 Non-host Organism Identifiers (OI)",
      441
    ],
    [
      1,
      "10 Appendices",
      444
    ],
    [
      2,
      "Appendix A: CDISC SDS Team",
      444
    ],
    [
      2,
      "Appendix B: Glossary and Abbreviations",
      446
    ],
    [
      2,
      "Appendix C: Controlled Terminology",
      448
    ],
    [
      2,
      "Appendix D: CDISC Variable-naming Fragments",
      449
    ],
    [
      2,
      "Appendix E: Revision History",
      452
    ],
    [
      2,
      "Appendix F: Representations and Warranties, Limitations of Liability, and Disclaimers",
      461
    ]
  ],
  "sample_pages": [
    {
      "page": 1,
      "text": "Study Data Tabulation Model \nImplementation Guide: Human Clinical Trials\nVersion 3.4 (Final)\nDeveloped by the\nCDISC Submission Data Standards Team\nRevision History\nDate\nVersion\nSummary of changes\n2022-07-21\n3.4 Final\nRe-issue of PDF with images updated for clarity\n2021-11-29\n3.4 Final\nSee Appendix E\n2018-02-20\n3.3 Final\nSee Appendix E\n2013-11-26\n3.2 Final\nSee Appendix E\n2012-07-16\n3.1.3 Final\nSee SDTMIG v3.2\n2008-11-12\n3.1.2 Final\nSee SDTMIG v3.2\n2005-08-26\n3.1.1 Final\nSee SDTMIG v3.2\n2004-07-14\n3.1\nSee SDTMIG v3.2\nSee Appendix F for representations and warranties, limitations of liability, and disclaimers.\nNotes to Readers\n\nThis is the implementation guide for human clinical trials corresponding to Version 2.0 of the CDISC\nStudy Data Tabulation Model.\n"
    },
    {
      "page": 2,
      "text": "CDISC Study Data Tabulation Model Implementation Guide: Human Clinical Trials (3.4 Final) \n© 2021 Clinical Data Interchange Standards Consortium, Inc. All rights reserved \n Page 2 \n2021-11-29 \nCONTENTS \n1 \nINTRODUCTION ................................................................................................................. 7 \n1.1 PURPOSE ................................................................................................................................................................ 7 \n1.2 ORGANIZATION OF THIS DOCUMENT ..................................................................................................................... 7 \n1.3 RELATIONSHIP TO PRIOR CDISC DOCUMENTS...................................................................................................... 7 \n1.4 HOW TO READ THIS IMPLEMENTATION GUIDE ...................................................................................................... 8 \n1.4.1 \nHow to Read a Domain Specification .................................................................................................... 9 \n1.5 KNOWN ISSUES .................................................................................................................................................... 10 \n2 \nFUNDAMENTALS OF THE SDTM ................................................................................. 11 \n2.1 OBSERVATIONS AND VARIABLES ........................................................................................................................ 11 \n2.2 DATASETS AND DOMAINS ................................................................................................................................... 11 \n2.3 THE GENERAL OBSERVATION CLASSES............................................................................................................... 12 \n2.4 DATASETS OTHER THAN GENERAL OBSERVATION CLASS DOMAINS .................................................................. 12 \n2.5 THE SDT"
    },
    {
      "page": 3,
      "text": "CDISC Study Data Tabulation Model Implementation Guide: Human Clinical Trials (3.4 Final) \n© 2021 Clinical Data Interchange Standards Consortium, Inc. All rights reserved \n Page 3 \n2021-11-29 \n4.2.8 \nMultiple Values for a Variable ............................................................................................................. 34 \n4.2.8.1 \nMultiple Values for an Intervention or Event Topic Variable .............................................................. 34 \n4.2.8.2 \nMultiple Values for a Findings Result Variable ................................................................................... 34 \n4.2.8.3 \nMultiple Values for a Non-result Qualifier Variable ............................................................................ 35 \n4.2.8.4 \nMultiple Values for a Parameter ........................................................................................................... 36 \n4.2.9 \nVariable Lengths .................................................................................................................................. 36 \n4.3 CODING AND CONTROLLED TERMINOLOGY ASSUMPTIONS ................................................................................. 36 \n4.3.1 \nControlled Terms, Codelist or Format Column .................................................................................... 36 \n4.3.2 \nControlled Terminology Text Case ...................................................................................................... 37 \n4.3.3 \nControlled Terminology Values ........................................................................................................... 37 \n4.3.4 \nUse of Controlled Terminology and Arbitrary Number Codes ............................................................ 37 \n4.3.5 \nStoring Controlled Terminology for Synonym Qualifier Variables ..................................................... 37 \n4.3.6 \nStoring Topic Variables for General Domain Models ..................................."
    },
    {
      "page": 4,
      "text": "CDISC Study Data Tabulation Model Implementation Guide: Human Clinical Trials (3.4 Final) \n© 2021 Clinical Data Interchange Standards Consortium, Inc. All rights reserved  \n Page 4 \n2021-11-29 \n6.1.3 \nExposure Domains ............................................................................................................................. 103 \n6.1.3.1 \nExposure (EX) .................................................................................................................................... 104 \n6.1.3.2 \nExposure as Collected (EC)................................................................................................................ 107 \n6.1.3.3 \nExposure/Exposure as Collected Examples........................................................................................ 111 \n6.1.4 \nMeal Data (ML) ................................................................................................................................. 121 \n6.1.5 \nProcedures (PR) .................................................................................................................................. 125 \n6.1.6 \nSubstance Use (SU) ............................................................................................................................ 129 \n6.2 MODELS FOR EVENTS DOMAINS ........................................................................................................................ 133 \n6.2.1 \nAdverse Events (AE) .......................................................................................................................... 133 \n6.2.2 \nBiospecimen Events (BE) .................................................................................................................. 143 \n6.2.3 \nClinical Events (CE) ........................................................................................................................... 148 \n6.2.4 \nDisposition (DS) ................................................................................"
    },
    {
      "page": 5,
      "text": "CDISC Study Data Tabulation Model Implementation Guide: Human Clinical Trials (3.4 Final) \n© 2021 Clinical Data Interchange Standards Consortium, Inc. All rights reserved  \n Page 5 \n2021-11-29 \n6.4.4 \nFindings About Events or Interventions (FA) .................................................................................... 364 \n6.4.5 \nSkin Response (SR) ............................................................................................................................ 375 \n7 \nTRIAL DESIGN MODEL DATASETS .......................................................................... 382 \n7.1 INTRODUCTION TO TRIAL DESIGN MODEL DATASETS ....................................................................................... 382 \n7.1.1 \nPurpose of the Trial Design Model..................................................................................................... 382 \n7.1.2 \nDefinitions of Trial Design Concepts ................................................................................................. 382 \n7.1.3 \nCurrent and Future Contents of the Trial Design Model .................................................................... 383 \n7.2 EXPERIMENTAL DESIGN (TA AND TE) .............................................................................................................. 384 \n7.2.1 \nTrial Arms (TA) ................................................................................................................................. 384 \n7.2.1.1 \nTrial Arms Issues ............................................................................................................................... 402 \n7.2.2 \nTrial Elements (TE) ............................................................................................................................ 402 \n7.2.2.1 \nTrial Elements Issues .......................................................................................................................... 405 \n7.3 SCHEDULE FOR ASSESSMENTS (TV, TD, AND "
    }
  ]
}