
================================================================================
第 1 页
================================================================================
Study Data Tabulation Model 
Implementation Guide: Human Clinical Trials
Version 3.4 (Final)
Developed by the
CDISC Submission Data Standards Team
Revision History
Date
Version
Summary of changes
2022-07-21
3.4 Final
Re-issue of PDF with images updated for clarity
2021-11-29
3.4 Final
See Appendix E
2018-02-20
3.3 Final
See Appendix E
2013-11-26
3.2 Final
See Appendix E
2012-07-16
3.1.3 Final
See SDTMIG v3.2
2008-11-12
3.1.2 Final
See SDTMIG v3.2
2005-08-26
3.1.1 Final
See SDTMIG v3.2
2004-07-14
3.1
See SDTMIG v3.2
See Appendix F for representations and warranties, limitations of liability, and disclaimers.
Notes to Readers

This is the implementation guide for human clinical trials corresponding to Version 2.0 of the CDISC
Study Data Tabulation Model.


================================================================================
第 2 页
================================================================================
CDISC Study Data Tabulation Model Implementation Guide: Human Clinical Trials (3.4 Final) 
© 2021 Clinical Data Interchange Standards Consortium, Inc. All rights reserved 
 Page 2 
2021-11-29 
CONTENTS 
1 
INTRODUCTION ................................................................................................................. 7 
1.1 PURPOSE ................................................................................................................................................................ 7 
1.2 ORGANIZATION OF THIS DOCUMENT ..................................................................................................................... 7 
1.3 RELATIONSHIP TO PRIOR CDISC DOCUMENTS...................................................................................................... 7 
1.4 HOW TO READ THIS IMPLEMENTATION GUIDE ...................................................................................................... 8 
1.4.1 
How to Read a Domain Specification .................................................................................................... 9 
1.5 KNOWN ISSUES .................................................................................................................................................... 10 
2 
FUNDAMENTALS OF THE SDTM ................................................................................. 11 
2.1 OBSERVATIONS AND VARIABLES ........................................................................................................................ 11 
2.2 DATASETS AND DOMAINS ................................................................................................................................... 11 
2.3 THE GENERAL OBSERVATION CLASSES............................................................................................................... 12 
2.4 DATASETS OTHER THAN GENERAL OBSERVATION CLASS DOMAINS .................................................................. 12 
2.5 THE SDTM STANDARD DOMAIN MODELS .......................................................................................................... 13 
2.6 CREATING A NEW DOMAIN ................................................................................................................................. 13 
2.7 SDTM VARIABLES NOT ALLOWED IN THE SDTMIG .......................................................................................... 15 
3 
SUBMITTING DATA IN STANDARD FORMAT ......................................................... 17 
3.1 STANDARD METADATA FOR DATASET CONTENTS AND ATTRIBUTES .................................................................. 17 
3.2 USING THE CDISC DOMAIN MODELS IN REGULATORY SUBMISSIONS – DATASET METADATA .......................... 17 
3.2.1 
Dataset-level Metadata ......................................................................................................................... 17 
3.2.1.1 
Primary Keys ...............................................

================================================================================
第 3 页
================================================================================
CDISC Study Data Tabulation Model Implementation Guide: Human Clinical Trials (3.4 Final) 
© 2021 Clinical Data Interchange Standards Consortium, Inc. All rights reserved 
 Page 3 
2021-11-29 
4.2.8 
Multiple Values for a Variable ............................................................................................................. 34 
4.2.8.1 
Multiple Values for an Intervention or Event Topic Variable .............................................................. 34 
4.2.8.2 
Multiple Values for a Findings Result Variable ................................................................................... 34 
4.2.8.3 
Multiple Values for a Non-result Qualifier Variable ............................................................................ 35 
4.2.8.4 
Multiple Values for a Parameter ........................................................................................................... 36 
4.2.9 
Variable Lengths .................................................................................................................................. 36 
4.3 CODING AND CONTROLLED TERMINOLOGY ASSUMPTIONS ................................................................................. 36 
4.3.1 
Controlled Terms, Codelist or Format Column .................................................................................... 36 
4.3.2 
Controlled Terminology Text Case ...................................................................................................... 37 
4.3.3 
Controlled Terminology Values ........................................................................................................... 37 
4.3.4 
Use of Controlled Terminology and Arbitrary Number Codes ............................................................ 37 
4.3.5 
Storing Controlled Terminology for Synonym Qualifier Variables ..................................................... 37 
4.3.6 
Storing Topic Variables for General Domain Models .......................................................................... 37 
4.3.7 
Use of "Yes" and "No" Values ............................................................................................................. 38 
4.4 ACTUAL AND RELATIVE TIME ASSUMPTIONS ...................................................................................................... 38 
4.4.1 
Formats for Date/Time Variables ......................................................................................................... 38 
4.4.2 
Date/Time Precision ............................................................................................................................. 39 
4.4.3 
Intervals of Time and Use of Duration for --DUR Variables ............................................................... 40 
4.4.3.1 
Intervals of Time and Use of Duration ................................................................................................. 40 
4.4.3.2 
Interval with Uncertainty ...................................

================================================================================
第 4 页
================================================================================
CDISC Study Data Tabulation Model Implementation Guide: Human Clinical Trials (3.4 Final) 
© 2021 Clinical Data Interchange Standards Consortium, Inc. All rights reserved  
 Page 4 
2021-11-29 
6.1.3 
Exposure Domains ............................................................................................................................. 103 
6.1.3.1 
Exposure (EX) .................................................................................................................................... 104 
6.1.3.2 
Exposure as Collected (EC)................................................................................................................ 107 
6.1.3.3 
Exposure/Exposure as Collected Examples........................................................................................ 111 
6.1.4 
Meal Data (ML) ................................................................................................................................. 121 
6.1.5 
Procedures (PR) .................................................................................................................................. 125 
6.1.6 
Substance Use (SU) ............................................................................................................................ 129 
6.2 MODELS FOR EVENTS DOMAINS ........................................................................................................................ 133 
6.2.1 
Adverse Events (AE) .......................................................................................................................... 133 
6.2.2 
Biospecimen Events (BE) .................................................................................................................. 143 
6.2.3 
Clinical Events (CE) ........................................................................................................................... 148 
6.2.4 
Disposition (DS) ................................................................................................................................. 155 
6.2.5 
Healthcare Encounters (HO) .............................................................................................................. 167 
6.2.6 
Medical History (MH) ........................................................................................................................ 171 
6.2.7 
Protocol Deviations (DV) ................................................................................................................... 178 
6.3 MODELS FOR FINDINGS DOMAINS ..................................................................................................................... 180 
6.3.1 
Product Accountability (DA) ............................................................................................................. 180 
6.3.2 
Death Details (DD) ............................................................................................................................. 183 
6.3.3 
ECG Test Results (E

================================================================================
第 5 页
================================================================================
CDISC Study Data Tabulation Model Implementation Guide: Human Clinical Trials (3.4 Final) 
© 2021 Clinical Data Interchange Standards Consortium, Inc. All rights reserved  
 Page 5 
2021-11-29 
6.4.4 
Findings About Events or Interventions (FA) .................................................................................... 364 
6.4.5 
Skin Response (SR) ............................................................................................................................ 375 
7 
TRIAL DESIGN MODEL DATASETS .......................................................................... 382 
7.1 INTRODUCTION TO TRIAL DESIGN MODEL DATASETS ....................................................................................... 382 
7.1.1 
Purpose of the Trial Design Model..................................................................................................... 382 
7.1.2 
Definitions of Trial Design Concepts ................................................................................................. 382 
7.1.3 
Current and Future Contents of the Trial Design Model .................................................................... 383 
7.2 EXPERIMENTAL DESIGN (TA AND TE) .............................................................................................................. 384 
7.2.1 
Trial Arms (TA) ................................................................................................................................. 384 
7.2.1.1 
Trial Arms Issues ............................................................................................................................... 402 
7.2.2 
Trial Elements (TE) ............................................................................................................................ 402 
7.2.2.1 
Trial Elements Issues .......................................................................................................................... 405 
7.3 SCHEDULE FOR ASSESSMENTS (TV, TD, AND TM) ........................................................................................... 407 
7.3.1 
Trial Visits (TV) ................................................................................................................................. 407 
7.3.1.1 
Trial Visits Issues ............................................................................................................................... 409 
7.3.2 
Trial Disease Assessments (TD) ........................................................................................................ 410 
7.3.3 
Trial Disease Milestones (TM) ........................................................................................................... 415 
7.4 TRIAL ELIGIBILITY AND SUMMARY (TI AND TS) ............................................................................................... 415 
7.4.1 
Trial Inclusion/Exclusion Criteria (TI) .....................................................................................

================================================================================
第 6 页
================================================================================
CDISC Study Data Tabulation Model Implementation Guide: Human Clinical Trials (3.4 Final) 
© 2021 Clinical Data Interchange Standards Consortium, Inc. All rights reserved  
 Page 6 
2021-11-29 
APPENDIX E: REVISION HISTORY ............................................................................................................................... 452 
APPENDIX F: REPRESENTATIONS AND WARRANTIES, LIMITATIONS OF LIABILITY, AND DISCLAIMERS ...................... 461 
 


================================================================================
第 7 页
================================================================================
CDISC Study Data Tabulation Model Implementation Guide: Human Clinical Trials (3.4 Final) 
© 2021 Clinical Data Interchange Standards Consortium, Inc. All rights reserved  
 Page 7 
2021-11-29 
1 Introduction 
1.1 Purpose 
The Study Data Tabulation Model Implementation Guide for Human Clinical Trials (SDTMIG) Version 3.4 has 
been prepared by the Submissions Data Standards (SDS) team of the Clinical Data Interchange Standards 
Consortium (CDISC). Like its predecessors, v3.4 is intended to guide the organization, structure, and format of 
standard clinical trial tabulation datasets submitted to a regulatory authority. Version 3.4 supersedes all prior 
versions of the SDTMIG. 
The SDTMIG should be used in close concert with Version 2.0 of the CDISC Study Data Tabulation Model 
(SDTM, available at https://www.cdisc.org/standards/foundational/sdtm), which describes the general conceptual 
model for representing clinical study data that is submitted to regulatory authorities and should be read prior to 
reading the SDTMIG. SDTMIG Version 3.4 provides specific domain models, assumptions, business rules, and 
examples for preparing standard tabulation datasets that are based on the SDTM. 
This document is intended for companies and individuals involved in the collection, preparation, and analysis of 
clinical data that will be submitted to regulatory authorities. 
1.2 Organization of this Document 
This document is organized into the following sections: 
• 
Section 1, Introduction, provides an overall introduction to the v3.4 models and describes changes from 
prior versions. 
• 
Section 2, Fundamentals of the SDTM, recaps the basic concepts of the SDTM, and describes how this 
implementation guide should be used in concert with the SDTM. 
• 
Section 3, Submitting Data in Standard Format, explains how to describe metadata for regulatory 
submissions, and how to assess conformance with the standards. 
• 
Section 4, Assumptions for Domain Models, describes basic concepts, business rules, and assumptions that 
should be taken into consideration before applying the domain models. 
• 
Section 5, Models for Special-purpose Domains, describes special-purpose domains, including 
Demographics, Comments, Subject Visits, and Subject Elements. 
• 
Section 6, Domain Models Based on the General Observation Classes, provides specific metadata models 
based on the 3 general observation classes, along with assumptions and example data. 
• 
Section 7, Trial Design Model Datasets, describes domains for trial-level data, with assumptions and 
examples. 
• 
Section 8, Representing Relationships and Data, describes how to represent relationships between separate 
domains, datasets, and/or records, and provides information to help sponsors determine where data belong 
in the SDTM. 
• 
Section 9, Study References, provides structures for representing study-specific terminology used in subject 
data. 
• 
Appendices provide additional background material and describe other suppl

================================================================================
第 8 页
================================================================================
CDISC Study Data Tabulation Model Implementation Guide: Human Clinical Trials (3.4 Final) 
© 2021 Clinical Data Interchange Standards Consortium, Inc. All rights reserved  
 Page 8 
2021-11-29 
• 
Expanded the scope of the DA domain to include study products in addition to study drugs. See Section 
6.3.1, Product Accountability. 
• 
Grouped specimen-based lab domains (e.g., CP, GF, LB) in Sections 6.3.5.1-6.3.5.9 and added a generic 
specification for these domains. See Section 6.3.5, Specimen-based Findings Domains. 
• 
Expanded the scope of the IS domain for assessments of antigen-induced humoral or cell-mediated immune 
response. Added 3 new variables (i.e., Binding Agent, Molecule Secreted by Cells, Test Operational 
Objective). See Section 6.3.5.5, Immunogenicity Specimen Assessments. 
• 
Updated the LB domain specification to include the following 10 new variables: Test Condition, Binding 
Agent, Test Operational Objective, Result Scale, Result Type, Collected Summary Result Type, Lower 
Limit of Detection, Method Sensitivity, Point in Time Flag, and Planned Duration. See Section 
6.3.5.6, Laboratory Test Results. 
• 
Decommissioned the Morphology (MO) domain. 
• 
Added Cell Phenotyping Findings (CP) and Genomics Findings (GF) domains. See Section 6.3.5.3, Cell 
Phenotype Findings (CP), and Section 6.3.5.4, Genomics Findings (GF). 
• 
Copied in Biospecimen Events (BE), Biospecimen Findings (BS), and Related Specimens (RELSPEC) 
from the provisional SDTMIG-PGx v1.0 in preparation for its eventual retirement. See Section 
6.2.2, Biospecimen Events (BE); Section 6.3.5.2, Biospecimen Findings (BS); and Section 8.8, Related 
Specimens (RELSPEC). 
• 
Updated QRS specifications and assumptions. Also introduced subsections to separate assumptions and 
examples describing the RS Disease Response use case and the RS Clinical Classifications use case. See 
Section 6.3.9, Questionnaires, Ratings, and Scales (QRS) Domains (FT, QS, RS). 
• 
Updated the Tumor/Lesion (TU and TR) domain assumptions to describe use of indicator questions, 
disease recurrence conventions, and modeling of location of interest. See Section 6.3.12, Tumor/Lesion 
Domains. 
• 
Expanded the scope of the SC domain to support collection over time. See Section 6.3.10, Subject 
Characteristics. 
• 
Updated guidance and examples for the FA domain. See Section 6.4, Findings About Events or 
Interventions. 
• 
Corrected Core values for the following variables: DSDY, DSSTDY, LBSTREFC, MILOBXFL, and 
MIBLFL. 
• 
Updated Controlled Terminology for applicable variables across all domains, if available. 
• 
Removed Appendix C1, Trial Summary Codes. 
A detailed list of changes between versions is provided in Appendix E, Revision History. 
Version 3.1 was the first fully implementation-ready version of the CDISC submission data standards that was 
directly referenced by the US FDA for use in human clinical studies involving drug products. However, future 
improvements and enhancements will conti

================================================================================
第 9 页
================================================================================
CDISC Study Data Tabulation Model Implementation Guide: Human Clinical Trials (3.4 Final) 
© 2021 Clinical Data Interchange Standards Consortium, Inc. All rights reserved  
 Page 9 
2021-11-29 
2. Next, read Sections 1-3 of this document to review the key concepts for preparing domains and submitting 
data to regulatory authorities. Refer to Appendix B, Glossary and Abbreviations, as necessary. 
3. Read Section 4, Assumptions for Domain Models.  
4. Review Section 5, Models for Special-purpose Domains, and Section 6, Domain Models Based on the 
General Observation Classes, in detail, referring back to Section 4, Assumptions for Domain Models, as 
directed. See the implementation examples for each domain to gain an understanding of how to apply the 
domain models for specific types of data. 
5. Read Section 7, Trial Design Model Datasets, to understand the fundamentals of the Trial Design Model 
and consider how to apply the concepts for typical protocols. 
6. Review Section 8, Representing Relationships and Data, to learn advanced concepts of how to express 
relationships between datasets, records, and additional variables not specifically defined in the models. 
7. Review Section 9, Study References, to learn about occasions when it is necessary to establish study-
specific references that will be used in accordance with subject data. 
8. Finally, review the appendices as appropriate. Appendix C, Controlled Terminology, in particular, 
describes how CDISC Terminology is centrally managed by the CDISC Controlled Terminology Team. 
Efforts are made at publication time to ensure all SDTMIG domain/dataset specification tables and/or 
examples reflect the latest CDISC Terminology; users, however, should refer to 
https://www.cancer.gov/research/resources/terminology/cdisc as the authoritative source of controlled 
terminology, as CDISC Controlled Terminology is updated on a quarterly basis. 
This implementation guide covers most data collected in human clinical trials, but separate implementation guides 
provide information about certain data, and should be consulted when needed. The following guides are available 
at https://www.cdisc.org/standards/foundational/sdtmig: 
• 
The SDTM Implementation Guide: Associated Persons (SDTMIG-AP) provides structures for representing 
data collected about persons who are not study subjects. 
• 
The SDTM Implementation Guide for Medical Devices (SDTMIG-MD) provides structures for data about 
devices. 
• 
Historically, the SDTM Implementation Guide for Pharmacogenomics/Genetics (SDTMIG-PGx) has 
provided structures for pharmacogenetic/genomic data and for data about biospecimens. Much of the 
content of the SDTMIG-PGx has been incorporated into and/or superseded by the SDTMIG v3.4. 
1.4.1 How to Read a Domain Specification 
A domain specification table includes rows for all required and expected variables for a domain and for a set of 
permissible variables. The permissible variables do not include all the variable

================================================================================
第 10 页
================================================================================
CDISC Study Data Tabulation Model Implementation Guide: Human Clinical Trials (3.4 Final) 
© 2021 Clinical Data Interchange Standards Consortium, Inc. All rights reserved  
 Page 10 
2021-11-29 
• 
The controlled terminology might be of a type that would inherently be sponsor-defined. 
• 
The controlled terminology might be of a type that could be standardized, but for which a 
codelist not yet been developed. 
• 
The controlled terminology might be terminology specified in value-level metadata. 
▪ 
The name of an external code system (e.g., MedDRA) will be listed in plain text. 
o 
Codelist  
▪ 
A hyperlinked codelist name in parentheses indicates that the variable is subject to the CDISC 
Controlled Terminology in the named codelist. 
▪ 
Multiple hyperlinked codelist names indicate that the variable is subject to 1 or more of the named 
codelists from CDISC Controlled Terminology. If multiple codelists are in use for a single 
domain, value-level metadata would indicate where each codelist is applicable. 
▪ 
A hyperlinked codelist name and an asterisk (*) indicate that the variable is subject to either the 
named codelist from the CDISC Controlled Terminology or to an external dictionary. The specific 
dictionary is identified in the metadata. 
o 
Format: "ISO 8601 datetime or interval" or "ISO 8601 duration" in plain text indicates that the variable 
values should be formatted in conformance with that standard. 
• 
Role: This is taken directly from the SDTM. Note that if a variable is either a Variable Qualifier or a 
Synonym Qualifier, the SDTM includes the qualified variable, but SDTMIG domain specifications do not. 
• 
CDISC Notes may include any of the following: 
o 
A description of what the variable means 
o 
Information about how this variable relates to another variable 
o 
Rules for when or how the variable should be populated, or how the contents should be formatted 
o 
Examples of values that might appear in the variable. Such examples are only examples, and although 
they may be CDISC Controlled Terminology values, their presence in a CDISC Note should not be 
construed as definitive. For authoritative information on CDISC Controlled Terminology, consult 
https://www.cancer.gov/research/resources/terminology/cdisc. 
• 
Core: Contains 1 of the 3 values—"Req", "Exp", or "Perm"—explained further in Section 4.1.5, SDTM 
Core Designations. 
1.5 Known Issues 
Derived Records and the use of --DRVFL 
Although it is implicit in the general concept of a derived record that there is no collected result (--ORRES should 
be null), this is not an explicit requirement currently stated in published CDISC material.  This is being evaluated for 
clarification in a future release of the SDTMIG and/or Model document. 
Use of --LNKID and --LNKGRP 
The definition of --LNKID says that it is "used to identify a record," and the definition of --LNKGRP says that it is 
"used to identify a group of records." This implies that when setting up a relationship i
