[
  {
    "page": 1,
    "text": "Study Data Tabulation Model \nImplementation Guide: Human Clinical Trials\nVersion 3.4 (Final)\nDeveloped by the\nCDISC Submission Data Standards Team\nRevision History\nDate\nVersion\nSummary of changes\n2022-07-21\n3.4 Final\nRe-issue of PDF with images updated for clarity\n2021-11-29\n3.4 Final\nSee Appendix E\n2018-02-20\n3.3 Final\nSee Appendix E\n2013-11-26\n3.2 Final\nSee Appendix E\n2012-07-16\n3.1.3 Final\nSee SDTMIG v3.2\n2008-11-12\n3.1.2 Final\nSee SDTMIG v3.2\n2005-08-26\n3.1.1 Final\nSee SDTMIG v3.2\n2004-07-14\n3.1\nSee SDTMIG v3.2\nSee Appendix F for representations and warranties, limitations of liability, and disclaimers.\nNotes to Readers\n\nThis is the implementation guide for human clinical trials corresponding to Version 2.0 of the CDISC\nStudy Data Tabulation Model.\n"
  },
  {
    "page": 2,
    "text": "CDISC Study Data Tabulation Model Implementation Guide: Human Clinical Trials (3.4 Final) \n© 2021 Clinical Data Interchange Standards Consortium, Inc. All rights reserved \n Page 2 \n2021-11-29 \nCONTENTS \n1 \nINTRODUCTION ................................................................................................................. 7 \n1.1 PURPOSE ................................................................................................................................................................ 7 \n1.2 ORGANIZATION OF THIS DOCUMENT ..................................................................................................................... 7 \n1.3 RELATIONSHIP TO PRIOR CDISC DOCUMENTS...................................................................................................... 7 \n1.4 HOW TO READ THIS IMPLEMENTATION GUIDE ...................................................................................................... 8 \n1.4.1 \nHow to Read a Domain Specification .................................................................................................... 9 \n1.5 KNOWN ISSUES .................................................................................................................................................... 10 \n2 \nFUNDAMENTALS OF THE SDTM ................................................................................. 11 \n2.1 OBSERVATIONS AND VARIABLES ........................................................................................................................ 11 \n2.2 DATASETS AND DOMAINS ................................................................................................................................... 11 \n2.3 THE GENERAL OBSERVATION CLASSES............................................................................................................... 12 \n2.4 DATASETS OTHER THAN GENERAL OBSERVATION CLASS DOMAINS .................................................................. 12 \n2.5 THE SDTM STANDARD DOMAIN MODELS .......................................................................................................... 13 \n2.6 CREATING A NEW DOMAIN ................................................................................................................................. 13 \n2.7 SDTM VARIABLES NOT ALLOWED IN THE SDTMIG .......................................................................................... 15 \n3 \nSUBMITTING DATA IN STANDARD FORMAT ......................................................... 17 \n3.1 STANDARD METADATA FOR DATASET CONTENTS AND ATTRIBUTES .................................................................. 17 \n3.2 USING THE CDISC DOMAIN MODELS IN REGULATORY SUBMISSIONS – DATASET METADATA .......................... 17 \n3.2.1 \nDataset-level Metadata ......................................................................................................................... 17 \n3.2.1.1 \nPrimary Keys ........................................................................................................................................ 20 \n3.2.1.2 \nCDISC Submission Value-level Metadata ........................................................................................... 20 \n3.2.2 \nConformance ........................................................................................................................................ 21 \n4 \nASSUMPTIONS FOR DOMAIN MODELS .................................................................... 22 \n4.1 GENERAL DOMAIN ASSUMPTIONS ....................................................................................................................... 22 \n4.1.1 \nReview Study Data Tabulation Model and Implementation Guide ...................................................... 22 \n4.1.2 \nRelationship to Analysis Datasets ........................................................................................................ 22 \n4.1.3 \nAdditional Timing Variables ................................................................................................................ 22 \n4.1.3.1 \nEPOCH Variable Guidance .................................................................................................................. 22 \n4.1.4 \nOrder of the Variables .......................................................................................................................... 22 \n4.1.5 \nSDTM Core Designations .................................................................................................................... 22 \n4.1.6 \nAdditional Guidance on Dataset Naming ............................................................................................. 23 \n4.1.7 \nSplitting Domains ................................................................................................................................. 23 \n4.1.7.1 \nExample of Splitting Questionnaires .................................................................................................... 24 \n4.1.8 \nOrigin Metadata .................................................................................................................................... 26 \n4.1.8.1 \nOrigin Metadata for Variables .............................................................................................................. 26 \n4.1.8.2 \nOrigin Metadata for Records ................................................................................................................ 26 \n4.1.9 \nAssigning Natural Keys in the Metadata .............................................................................................. 26 \n4.2 GENERAL VARIABLE ASSUMPTIONS .................................................................................................................... 28 \n4.2.1 \nVariable-naming Conventions .............................................................................................................. 28 \n4.2.2 \nTwo-character Domain Identifier ......................................................................................................... 28 \n4.2.3 \nUse of \"Subject\" and USUBJID ........................................................................................................... 29 \n4.2.4 \nText Case in Submitted Data ................................................................................................................ 29 \n4.2.5 \nConvention for Missing Values ............................................................................................................ 29 \n4.2.6 \nGrouping Variables and Categorization ............................................................................................... 29 \n4.2.7 \nSubmitting Free Text from the CRF ..................................................................................................... 31 \n4.2.7.1 \n\"Specify\" Values for Non-result Qualifier Variables ........................................................................... 31 \n4.2.7.2 \n\"Specify\" Values for Result Qualifier Variables .................................................................................. 33 \n4.2.7.3 \n\"Specify\" Values for Topic Variables .................................................................................................. 33 \n4.2.7.4 \n\"Specify\" Values for --OBJ .................................................................................................................. 34 \n"
  },
  {
    "page": 3,
    "text": "CDISC Study Data Tabulation Model Implementation Guide: Human Clinical Trials (3.4 Final) \n© 2021 Clinical Data Interchange Standards Consortium, Inc. All rights reserved \n Page 3 \n2021-11-29 \n4.2.8 \nMultiple Values for a Variable ............................................................................................................. 34 \n4.2.8.1 \nMultiple Values for an Intervention or Event Topic Variable .............................................................. 34 \n4.2.8.2 \nMultiple Values for a Findings Result Variable ................................................................................... 34 \n4.2.8.3 \nMultiple Values for a Non-result Qualifier Variable ............................................................................ 35 \n4.2.8.4 \nMultiple Values for a Parameter ........................................................................................................... 36 \n4.2.9 \nVariable Lengths .................................................................................................................................. 36 \n4.3 CODING AND CONTROLLED TERMINOLOGY ASSUMPTIONS ................................................................................. 36 \n4.3.1 \nControlled Terms, Codelist or Format Column .................................................................................... 36 \n4.3.2 \nControlled Terminology Text Case ...................................................................................................... 37 \n4.3.3 \nControlled Terminology Values ........................................................................................................... 37 \n4.3.4 \nUse of Controlled Terminology and Arbitrary Number Codes ............................................................ 37 \n4.3.5 \nStoring Controlled Terminology for Synonym Qualifier Variables ..................................................... 37 \n4.3.6 \nStoring Topic Variables for General Domain Models .......................................................................... 37 \n4.3.7 \nUse of \"Yes\" and \"No\" Values ............................................................................................................. 38 \n4.4 ACTUAL AND RELATIVE TIME ASSUMPTIONS ...................................................................................................... 38 \n4.4.1 \nFormats for Date/Time Variables ......................................................................................................... 38 \n4.4.2 \nDate/Time Precision ............................................................................................................................. 39 \n4.4.3 \nIntervals of Time and Use of Duration for --DUR Variables ............................................................... 40 \n4.4.3.1 \nIntervals of Time and Use of Duration ................................................................................................. 40 \n4.4.3.2 \nInterval with Uncertainty ...................................................................................................................... 41 \n4.4.4 \nUse of the Study Day Variables ........................................................................................................... 41 \n4.4.5 \nClinical Encounters and Visits ............................................................................................................. 42 \n4.4.6 \nRepresenting Additional Study Days ................................................................................................... 43 \n4.4.7 \nUse of Relative Timing Variables ........................................................................................................ 43 \n4.4.8 \nDate and Time Reported in a Domain Based on Findings ................................................................... 45 \n4.4.9 \nUse of Dates as Result Variables .......................................................................................................... 45 \n4.4.10 \nRepresenting Time Points .................................................................................................................... 46 \n4.4.11 \nDisease Milestones and Disease Milestone Timing Variables ............................................................. 48 \n4.5 OTHER ASSUMPTIONS ......................................................................................................................................... 51 \n4.5.1 \nOriginal and Standardized Results of Findings and Tests Not Done .................................................... 51 \n4.5.1.1 \nOriginal and Standardized Results ....................................................................................................... 51 \n4.5.1.2 \nTests Not Done ..................................................................................................................................... 52 \n4.5.1.3 \nExamples of Original and Standard Units and Test Not Done ............................................................. 52 \n4.5.2 \nLinking Multiple Observations ............................................................................................................. 54 \n4.5.3 \nText Strings that Exceed the Maximum Length for General Observation-class Domain Variables .... 54 \n4.5.3.1 \nTest Name (--TEST) Greater than 40 Characters ................................................................................. 54 \n4.5.3.2 \nText Strings Greater than 200 Characters in Other Variables .............................................................. 55 \n4.5.4 \nEvaluators in the Interventions and Events Observation Classes ......................................................... 56 \n4.5.5 \nClinical Significance for Findings Observation Class Data ................................................................. 57 \n4.5.6 \nSupplemental Reason Variables ........................................................................................................... 57 \n4.5.7 \nPresence or Absence of Prespecified Interventions and Events ........................................................... 57 \n4.5.8 \nAccounting for Long-term Follow-up .................................................................................................. 58 \n4.5.9 \nBaseline Values .................................................................................................................................... 59 \n5 \nMODELS FOR SPECIAL-PURPOSE DOMAINS .......................................................... 60 \n5.1 COMMENTS (CO)................................................................................................................................................. 60 \n5.2 DEMOGRAPHICS (DM)......................................................................................................................................... 62 \n5.3 SUBJECT ELEMENTS (SE) .................................................................................................................................... 79 \n5.4 SUBJECT DISEASE MILESTONES (SM) ................................................................................................................. 84 \n5.5 SUBJECT VISITS (SV) .......................................................................................................................................... 86 \n6 \nDOMAIN MODELS BASED ON THE GENERAL OBSERVATION CLASSES ....... 92 \n6.1 MODELS FOR INTERVENTIONS DOMAINS ............................................................................................................. 92 \n6.1.1 \nProcedure Agents (AG) ........................................................................................................................ 92 \n6.1.2 \nConcomitant/Prior Medications (CM) .................................................................................................. 98 \n"
  },
  {
    "page": 4,
    "text": "CDISC Study Data Tabulation Model Implementation Guide: Human Clinical Trials (3.4 Final) \n© 2021 Clinical Data Interchange Standards Consortium, Inc. All rights reserved  \n Page 4 \n2021-11-29 \n6.1.3 \nExposure Domains ............................................................................................................................. 103 \n6.1.3.1 \nExposure (EX) .................................................................................................................................... 104 \n6.1.3.2 \nExposure as Collected (EC)................................................................................................................ 107 \n6.1.3.3 \nExposure/Exposure as Collected Examples........................................................................................ 111 \n6.1.4 \nMeal Data (ML) ................................................................................................................................. 121 \n6.1.5 \nProcedures (PR) .................................................................................................................................. 125 \n6.1.6 \nSubstance Use (SU) ............................................................................................................................ 129 \n6.2 MODELS FOR EVENTS DOMAINS ........................................................................................................................ 133 \n6.2.1 \nAdverse Events (AE) .......................................................................................................................... 133 \n6.2.2 \nBiospecimen Events (BE) .................................................................................................................. 143 \n6.2.3 \nClinical Events (CE) ........................................................................................................................... 148 \n6.2.4 \nDisposition (DS) ................................................................................................................................. 155 \n6.2.5 \nHealthcare Encounters (HO) .............................................................................................................. 167 \n6.2.6 \nMedical History (MH) ........................................................................................................................ 171 \n6.2.7 \nProtocol Deviations (DV) ................................................................................................................... 178 \n6.3 MODELS FOR FINDINGS DOMAINS ..................................................................................................................... 180 \n6.3.1 \nProduct Accountability (DA) ............................................................................................................. 180 \n6.3.2 \nDeath Details (DD) ............................................................................................................................. 183 \n6.3.3 \nECG Test Results (EG) ...................................................................................................................... 185 \n6.3.4 \nInclusion/Exclusion Criteria Not Met (IE) ......................................................................................... 193 \n6.3.5 \nSpecimen-based Findings Domains.................................................................................................... 194 \n6.3.5.1 \nGeneric Specimen-based Lab Findings Domain Specification .......................................................... 194 \n6.3.5.2 \nBiospecimen Findings (BS) ................................................................................................................ 196 \n6.3.5.3 \nCell Phenotype Findings (CP) ............................................................................................................ 199 \n6.3.5.4 \nGenomics Findings (GF) .................................................................................................................... 220 \n6.3.5.5 \nImmunogenicity Specimen Assessments (IS) .................................................................................... 228 \n6.3.5.6 \nLaboratory Test Results (LB) ............................................................................................................. 241 \n6.3.5.7 \nMicrobiology Domains ....................................................................................................................... 248 \n6.3.5.8 \nMicroscopic Findings (MI)................................................................................................................. 263 \n6.3.5.9 \nPharmacokinetics Domains ................................................................................................................ 267 \n6.3.6 \nMorphology (MO) .............................................................................................................................. 285 \n6.3.7 \nMorphology/Physiology Domains ...................................................................................................... 285 \n6.3.7.1 \nGeneric Morphology/Physiology Specification ................................................................................. 285 \n6.3.7.2 \nCardiovascular System Findings (CV) ............................................................................................... 286 \n6.3.7.3 \nMusculoskeletal System Findings (MK) ............................................................................................ 290 \n6.3.7.4 \nNervous System Findings (NV) ......................................................................................................... 294 \n6.3.7.5 \nOphthalmic Examinations (OE) ......................................................................................................... 298 \n6.3.7.6 \nReproductive System Findings (RP) .................................................................................................. 305 \n6.3.7.7 \nRespiratory System Findings (RE) ..................................................................................................... 308 \n6.3.7.8 \nUrinary System Findings (UR) ........................................................................................................... 312 \n6.3.8 \nPhysical Examination (PE) ................................................................................................................. 315 \n6.3.9 \nQuestionnaires, Ratings, and Scales (QRS) Domains (FT, QS, RS) .................................................. 318 \n6.3.9.1 \nFunctional Tests (FT) ......................................................................................................................... 319 \n6.3.9.2 \nQuestionnaires (QS) ........................................................................................................................... 324 \n6.3.9.3 \nDisease Response and Clin Classification (RS) ................................................................................. 329 \n6.3.10 \nSubject Characteristics (SC) ............................................................................................................... 339 \n6.3.11 \nSubject Status (SS) ............................................................................................................................. 342 \n6.3.12 \nTumor/Lesion Domains ...................................................................................................................... 344 \n6.3.12.1 Tumor/Lesion Identification (TU) ...................................................................................................... 344 \n6.3.12.2 Tumor/Lesion Results (TR) ................................................................................................................ 350 \n6.3.12.3 Tumor Identification/Tumor Results Examples ................................................................................. 353 \n6.3.13 \nVital Signs (VS) ................................................................................................................................. 358 \n6.4 FINDINGS ABOUT EVENTS OR INTERVENTIONS.................................................................................................. 361 \n6.4.1 \nWhen to Use Findings About Events or Interventions ....................................................................... 361 \n6.4.2 \nNaming Findings About Domains ...................................................................................................... 363 \n6.4.3 \nVariables Unique to Findings About .................................................................................................. 364 \n"
  },
  {
    "page": 5,
    "text": "CDISC Study Data Tabulation Model Implementation Guide: Human Clinical Trials (3.4 Final) \n© 2021 Clinical Data Interchange Standards Consortium, Inc. All rights reserved  \n Page 5 \n2021-11-29 \n6.4.4 \nFindings About Events or Interventions (FA) .................................................................................... 364 \n6.4.5 \nSkin Response (SR) ............................................................................................................................ 375 \n7 \nTRIAL DESIGN MODEL DATASETS .......................................................................... 382 \n7.1 INTRODUCTION TO TRIAL DESIGN MODEL DATASETS ....................................................................................... 382 \n7.1.1 \nPurpose of the Trial Design Model..................................................................................................... 382 \n7.1.2 \nDefinitions of Trial Design Concepts ................................................................................................. 382 \n7.1.3 \nCurrent and Future Contents of the Trial Design Model .................................................................... 383 \n7.2 EXPERIMENTAL DESIGN (TA AND TE) .............................................................................................................. 384 \n7.2.1 \nTrial Arms (TA) ................................................................................................................................. 384 \n7.2.1.1 \nTrial Arms Issues ............................................................................................................................... 402 \n7.2.2 \nTrial Elements (TE) ............................................................................................................................ 402 \n7.2.2.1 \nTrial Elements Issues .......................................................................................................................... 405 \n7.3 SCHEDULE FOR ASSESSMENTS (TV, TD, AND TM) ........................................................................................... 407 \n7.3.1 \nTrial Visits (TV) ................................................................................................................................. 407 \n7.3.1.1 \nTrial Visits Issues ............................................................................................................................... 409 \n7.3.2 \nTrial Disease Assessments (TD) ........................................................................................................ 410 \n7.3.3 \nTrial Disease Milestones (TM) ........................................................................................................... 415 \n7.4 TRIAL ELIGIBILITY AND SUMMARY (TI AND TS) ............................................................................................... 415 \n7.4.1 \nTrial Inclusion/Exclusion Criteria (TI) ............................................................................................... 416 \n7.4.2 \nTrial Summary (TS) ........................................................................................................................... 417 \n7.4.2.1 \nUse of Null Flavor .............................................................................................................................. 424 \n7.5 HOW TO MODEL THE DESIGN OF A CLINICAL TRIAL ......................................................................................... 425 \n8 \nREPRESENTING RELATIONSHIPS AND DATA ...................................................... 427 \n8.1 RELATING GROUPS OF RECORDS WITHIN A DOMAIN USING THE --GRPID VARIABLE ..................................... 428 \n8.1.1 \n--GRPID Example .............................................................................................................................. 428 \n8.2 RELATING PEER RECORDS ................................................................................................................................. 429 \n8.2.1 \nRelated Records (RELREC) ............................................................................................................... 429 \n8.2.2 \nRELREC Dataset Examples ............................................................................................................... 430 \n8.3 RELATING DATASETS ........................................................................................................................................ 430 \n8.3.1 \nRELREC Dataset Relationship Example ........................................................................................... 431 \n8.4 RELATING NON-STANDARD VARIABLE VALUES TO A PARENT DOMAIN ........................................................... 431 \n8.4.1 \nSupplemental Qualifiers (SUPP--) ..................................................................................................... 432 \n8.4.2 \nSubmitting Supplemental Qualifiers in Separate Datasets ................................................................. 433 \n8.4.3 \nSUPP-- Examples ............................................................................................................................... 433 \n8.4.4 \nWhen Not to Use Supplemental Qualifiers ........................................................................................ 434 \n8.5 RELATING COMMENTS TO A PARENT DOMAIN .................................................................................................. 434 \n8.6 HOW TO DETERMINE WHERE DATA BELONG IN SDTM-COMPLIANT DATA TABULATIONS .............................. 435 \n8.6.1 \nGuidelines for Determining the General Observation Class .............................................................. 435 \n8.6.2 \nGuidelines for Forming New Domains .............................................................................................. 435 \n8.6.3 \nGuidelines for Differentiating Between Interventions, Events, Findings, and Findings About Events or \nInterventions .......................................................................................................................................................... 436 \n8.7 RELATED SUBJECTS (RELSUB) ........................................................................................................................ 437 \n8.8 RELATED SPECIMENS (RELSPEC) .................................................................................................................... 439 \n9 \nSTUDY REFERENCES .................................................................................................... 441 \n9.1 DEVICE IDENTIFIERS.......................................................................................................................................... 441 \n9.2 NON-HOST ORGANISM IDENTIFIERS (OI) ........................................................................................................... 441 \n10 APPENDICES .................................................................................................................... 444 \nAPPENDIX A: CDISC SDS TEAM ............................................................................................................................... 444 \nAPPENDIX B: GLOSSARY AND ABBREVIATIONS ......................................................................................................... 446 \nAPPENDIX C: CONTROLLED TERMINOLOGY ............................................................................................................... 448 \nAPPENDIX D: CDISC VARIABLE-NAMING FRAGMENTS ............................................................................................. 449 \n"
  },
  {
    "page": 6,
    "text": "CDISC Study Data Tabulation Model Implementation Guide: Human Clinical Trials (3.4 Final) \n© 2021 Clinical Data Interchange Standards Consortium, Inc. All rights reserved  \n Page 6 \n2021-11-29 \nAPPENDIX E: REVISION HISTORY ............................................................................................................................... 452 \nAPPENDIX F: REPRESENTATIONS AND WARRANTIES, LIMITATIONS OF LIABILITY, AND DISCLAIMERS ...................... 461 \n \n"
  },
  {
    "page": 7,
    "text": "CDISC Study Data Tabulation Model Implementation Guide: Human Clinical Trials (3.4 Final) \n© 2021 Clinical Data Interchange Standards Consortium, Inc. All rights reserved  \n Page 7 \n2021-11-29 \n1 Introduction \n1.1 Purpose \nThe Study Data Tabulation Model Implementation Guide for Human Clinical Trials (SDTMIG) Version 3.4 has \nbeen prepared by the Submissions Data Standards (SDS) team of the Clinical Data Interchange Standards \nConsortium (CDISC). Like its predecessors, v3.4 is intended to guide the organization, structure, and format of \nstandard clinical trial tabulation datasets submitted to a regulatory authority. Version 3.4 supersedes all prior \nversions of the SDTMIG. \nThe SDTMIG should be used in close concert with Version 2.0 of the CDISC Study Data Tabulation Model \n(SDTM, available at https://www.cdisc.org/standards/foundational/sdtm), which describes the general conceptual \nmodel for representing clinical study data that is submitted to regulatory authorities and should be read prior to \nreading the SDTMIG. SDTMIG Version 3.4 provides specific domain models, assumptions, business rules, and \nexamples for preparing standard tabulation datasets that are based on the SDTM. \nThis document is intended for companies and individuals involved in the collection, preparation, and analysis of \nclinical data that will be submitted to regulatory authorities. \n1.2 Organization of this Document \nThis document is organized into the following sections: \n• \nSection 1, Introduction, provides an overall introduction to the v3.4 models and describes changes from \nprior versions. \n• \nSection 2, Fundamentals of the SDTM, recaps the basic concepts of the SDTM, and describes how this \nimplementation guide should be used in concert with the SDTM. \n• \nSection 3, Submitting Data in Standard Format, explains how to describe metadata for regulatory \nsubmissions, and how to assess conformance with the standards. \n• \nSection 4, Assumptions for Domain Models, describes basic concepts, business rules, and assumptions that \nshould be taken into consideration before applying the domain models. \n• \nSection 5, Models for Special-purpose Domains, describes special-purpose domains, including \nDemographics, Comments, Subject Visits, and Subject Elements. \n• \nSection 6, Domain Models Based on the General Observation Classes, provides specific metadata models \nbased on the 3 general observation classes, along with assumptions and example data. \n• \nSection 7, Trial Design Model Datasets, describes domains for trial-level data, with assumptions and \nexamples. \n• \nSection 8, Representing Relationships and Data, describes how to represent relationships between separate \ndomains, datasets, and/or records, and provides information to help sponsors determine where data belong \nin the SDTM. \n• \nSection 9, Study References, provides structures for representing study-specific terminology used in subject \ndata. \n• \nAppendices provide additional background material and describe other supplemental material relevant \nto implementation. \n1.3 Relationship to Prior CDISC Documents \nThis document, together with the SDTM, represents the most recent version of the CDISC submission data domain \nmodels. All updates are intended to be backward-compatible. The most significant changes since SDTMIG v3.3 \ninclude: \n"
  },
  {
    "page": 8,
    "text": "CDISC Study Data Tabulation Model Implementation Guide: Human Clinical Trials (3.4 Final) \n© 2021 Clinical Data Interchange Standards Consortium, Inc. All rights reserved  \n Page 8 \n2021-11-29 \n• \nExpanded the scope of the DA domain to include study products in addition to study drugs. See Section \n6.3.1, Product Accountability. \n• \nGrouped specimen-based lab domains (e.g., CP, GF, LB) in Sections 6.3.5.1-6.3.5.9 and added a generic \nspecification for these domains. See Section 6.3.5, Specimen-based Findings Domains. \n• \nExpanded the scope of the IS domain for assessments of antigen-induced humoral or cell-mediated immune \nresponse. Added 3 new variables (i.e., Binding Agent, Molecule Secreted by Cells, Test Operational \nObjective). See Section 6.3.5.5, Immunogenicity Specimen Assessments. \n• \nUpdated the LB domain specification to include the following 10 new variables: Test Condition, Binding \nAgent, Test Operational Objective, Result Scale, Result Type, Collected Summary Result Type, Lower \nLimit of Detection, Method Sensitivity, Point in Time Flag, and Planned Duration. See Section \n6.3.5.6, Laboratory Test Results. \n• \nDecommissioned the Morphology (MO) domain. \n• \nAdded Cell Phenotyping Findings (CP) and Genomics Findings (GF) domains. See Section 6.3.5.3, Cell \nPhenotype Findings (CP), and Section 6.3.5.4, Genomics Findings (GF). \n• \nCopied in Biospecimen Events (BE), Biospecimen Findings (BS), and Related Specimens (RELSPEC) \nfrom the provisional SDTMIG-PGx v1.0 in preparation for its eventual retirement. See Section \n6.2.2, Biospecimen Events (BE); Section 6.3.5.2, Biospecimen Findings (BS); and Section 8.8, Related \nSpecimens (RELSPEC). \n• \nUpdated QRS specifications and assumptions. Also introduced subsections to separate assumptions and \nexamples describing the RS Disease Response use case and the RS Clinical Classifications use case. See \nSection 6.3.9, Questionnaires, Ratings, and Scales (QRS) Domains (FT, QS, RS). \n• \nUpdated the Tumor/Lesion (TU and TR) domain assumptions to describe use of indicator questions, \ndisease recurrence conventions, and modeling of location of interest. See Section 6.3.12, Tumor/Lesion \nDomains. \n• \nExpanded the scope of the SC domain to support collection over time. See Section 6.3.10, Subject \nCharacteristics. \n• \nUpdated guidance and examples for the FA domain. See Section 6.4, Findings About Events or \nInterventions. \n• \nCorrected Core values for the following variables: DSDY, DSSTDY, LBSTREFC, MILOBXFL, and \nMIBLFL. \n• \nUpdated Controlled Terminology for applicable variables across all domains, if available. \n• \nRemoved Appendix C1, Trial Summary Codes. \nA detailed list of changes between versions is provided in Appendix E, Revision History. \nVersion 3.1 was the first fully implementation-ready version of the CDISC submission data standards that was \ndirectly referenced by the US FDA for use in human clinical studies involving drug products. However, future \nimprovements and enhancements will continue to be made as sponsors gain more experience submitting data in this \nformat. Therefore, CDISC will be preparing regular updates to the implementation guide to provide corrections, \nclarifications, additional domain models, examples, business rules, and conventions for using the standard domain \nmodels. Because CDISC will produce further documentation for Controlled Terminology as separate publications, \nsponsors are encouraged to check the CDISC website (https://www.cdisc.org/standards/terminology/controlled-\nterminology) frequently for additional information. See Section 4.3, Coding and Controlled Terminology \nAssumptions, for the most up-to-date information on applying Controlled Terminology. \n1.4 How to Read this Implementation Guide \nThe SDTMIG is best read online, so the reader can benefit from the many hyperlinks to internal and external \nreferences. The following guidelines may be helpful in reading this document: \n1. First, read the SDTM to gain a general understanding of SDTM concepts. \n"
  },
  {
    "page": 9,
    "text": "CDISC Study Data Tabulation Model Implementation Guide: Human Clinical Trials (3.4 Final) \n© 2021 Clinical Data Interchange Standards Consortium, Inc. All rights reserved  \n Page 9 \n2021-11-29 \n2. Next, read Sections 1-3 of this document to review the key concepts for preparing domains and submitting \ndata to regulatory authorities. Refer to Appendix B, Glossary and Abbreviations, as necessary. \n3. Read Section 4, Assumptions for Domain Models.  \n4. Review Section 5, Models for Special-purpose Domains, and Section 6, Domain Models Based on the \nGeneral Observation Classes, in detail, referring back to Section 4, Assumptions for Domain Models, as \ndirected. See the implementation examples for each domain to gain an understanding of how to apply the \ndomain models for specific types of data. \n5. Read Section 7, Trial Design Model Datasets, to understand the fundamentals of the Trial Design Model \nand consider how to apply the concepts for typical protocols. \n6. Review Section 8, Representing Relationships and Data, to learn advanced concepts of how to express \nrelationships between datasets, records, and additional variables not specifically defined in the models. \n7. Review Section 9, Study References, to learn about occasions when it is necessary to establish study-\nspecific references that will be used in accordance with subject data. \n8. Finally, review the appendices as appropriate. Appendix C, Controlled Terminology, in particular, \ndescribes how CDISC Terminology is centrally managed by the CDISC Controlled Terminology Team. \nEfforts are made at publication time to ensure all SDTMIG domain/dataset specification tables and/or \nexamples reflect the latest CDISC Terminology; users, however, should refer to \nhttps://www.cancer.gov/research/resources/terminology/cdisc as the authoritative source of controlled \nterminology, as CDISC Controlled Terminology is updated on a quarterly basis. \nThis implementation guide covers most data collected in human clinical trials, but separate implementation guides \nprovide information about certain data, and should be consulted when needed. The following guides are available \nat https://www.cdisc.org/standards/foundational/sdtmig: \n• \nThe SDTM Implementation Guide: Associated Persons (SDTMIG-AP) provides structures for representing \ndata collected about persons who are not study subjects. \n• \nThe SDTM Implementation Guide for Medical Devices (SDTMIG-MD) provides structures for data about \ndevices. \n• \nHistorically, the SDTM Implementation Guide for Pharmacogenomics/Genetics (SDTMIG-PGx) has \nprovided structures for pharmacogenetic/genomic data and for data about biospecimens. Much of the \ncontent of the SDTMIG-PGx has been incorporated into and/or superseded by the SDTMIG v3.4. \n1.4.1 How to Read a Domain Specification \nA domain specification table includes rows for all required and expected variables for a domain and for a set of \npermissible variables. The permissible variables do not include all the variables that are allowed for the domain; \nthey are a set of variables that the SDS Team considered likely to be included. The columns of the table are: \n• \nVariable Name \no \nFor variables that do not include a domain prefix, this name is taken directly from the SDTM. \no \nFor variables with a \"--\" placeholder in the SDTM, the \"--\" is replaced by the 2-character domain code. \n• \nVariable Label: A longer name for the variable   \no \nThis may be the same as the label in the SDTM, or it may be customized for the domain. \no \nSponsors should create an appropriate label if they include in a dataset an allowable variable not in the \ndomain specification. \n• \nType: One of the 2 SAS datatypes, \"Num\" or \"Char\".  These values are taken directly from the SDTM. \n• \nControlled Terms, Codelist, or Format \no \nControlled Terms \n▪ \nAs noted in the table note, an asterisk (*) indicates that the variable may be subject to controlled \nterminology. \n"
  },
  {
    "page": 10,
    "text": "CDISC Study Data Tabulation Model Implementation Guide: Human Clinical Trials (3.4 Final) \n© 2021 Clinical Data Interchange Standards Consortium, Inc. All rights reserved  \n Page 10 \n2021-11-29 \n• \nThe controlled terminology might be of a type that would inherently be sponsor-defined. \n• \nThe controlled terminology might be of a type that could be standardized, but for which a \ncodelist not yet been developed. \n• \nThe controlled terminology might be terminology specified in value-level metadata. \n▪ \nThe name of an external code system (e.g., MedDRA) will be listed in plain text. \no \nCodelist  \n▪ \nA hyperlinked codelist name in parentheses indicates that the variable is subject to the CDISC \nControlled Terminology in the named codelist. \n▪ \nMultiple hyperlinked codelist names indicate that the variable is subject to 1 or more of the named \ncodelists from CDISC Controlled Terminology. If multiple codelists are in use for a single \ndomain, value-level metadata would indicate where each codelist is applicable. \n▪ \nA hyperlinked codelist name and an asterisk (*) indicate that the variable is subject to either the \nnamed codelist from the CDISC Controlled Terminology or to an external dictionary. The specific \ndictionary is identified in the metadata. \no \nFormat: \"ISO 8601 datetime or interval\" or \"ISO 8601 duration\" in plain text indicates that the variable \nvalues should be formatted in conformance with that standard. \n• \nRole: This is taken directly from the SDTM. Note that if a variable is either a Variable Qualifier or a \nSynonym Qualifier, the SDTM includes the qualified variable, but SDTMIG domain specifications do not. \n• \nCDISC Notes may include any of the following: \no \nA description of what the variable means \no \nInformation about how this variable relates to another variable \no \nRules for when or how the variable should be populated, or how the contents should be formatted \no \nExamples of values that might appear in the variable. Such examples are only examples, and although \nthey may be CDISC Controlled Terminology values, their presence in a CDISC Note should not be \nconstrued as definitive. For authoritative information on CDISC Controlled Terminology, consult \nhttps://www.cancer.gov/research/resources/terminology/cdisc. \n• \nCore: Contains 1 of the 3 values—\"Req\", \"Exp\", or \"Perm\"—explained further in Section 4.1.5, SDTM \nCore Designations. \n1.5 Known Issues \nDerived Records and the use of --DRVFL \nAlthough it is implicit in the general concept of a derived record that there is no collected result (--ORRES should \nbe null), this is not an explicit requirement currently stated in published CDISC material.  This is being evaluated for \nclarification in a future release of the SDTMIG and/or Model document. \nUse of --LNKID and --LNKGRP \nThe definition of --LNKID says that it is \"used to identify a record,\" and the definition of --LNKGRP says that it is \n\"used to identify a group of records.\" This implies that when setting up a relationship in RELREC, a row where \nRELTYPE = ONE will have an IDVAR of --LNKID (and not --LNKGRP); a row where RELTYPE = MANY will \nhave an IDVAR of --LNKID (and not --LNKGRP). The examples in this version of the SDTMIG have not been \nsystematically reviewed to implement this distinction between --LNKID and --LNKGRP. This distinction between -\n-LNKID and --LNKGRP, and the appropriateness of using other identification variables for linking, will be clarified \nin a future release of the SDTMIG and/or Model document, and at that time examples in the SDTMIG will be \nsystematically reviewed and updated to reflect that clarification. \n"
  },
  {
    "page": 11,
    "text": "CDISC Study Data Tabulation Model Implementation Guide: Human Clinical Trials (3.4 Final) \n© 2021 Clinical Data Interchange Standards Consortium, Inc. All rights reserved  \n Page 11 \n2021-11-29 \n2 Fundamentals of the SDTM \n2.1 Observations and Variables \nThe SDTMIG for Human Clinical Trials is based on the SDTM’s general framework for organizing clinical trial \ninformation that is to be submitted to regulatory authorities. The SDTM is built around the concept of observations \ncollected about subjects who participated in a clinical study. Each observation can be described by a series of \nvariables, corresponding to a row in a dataset. Each variable can be classified according to its role. A role \ndetermines the type of information conveyed by the variable about each distinct observation and how it can be used. \nVariables can be classified into 5 major roles:  \n• \nIdentifier variables, such as those that identify the study, subject, domain, and sequence number of the \nrecord \n• \nTopic variables, which specify the focus of the observation (e.g., the name of a lab test) \n• \nTiming variables, which describe the timing of the observation (e.g., start date and end date) \n• \nQualifier variables, which include additional illustrative text or numeric values that describe the results or \nadditional traits of the observation (e.g., units, descriptive adjectives) \n• \nRule variables, which describe the condition to start, end, branch, or loop in the Trial Design Model \nThe set of Qualifier variables can be further categorized into 5 subclasses: \n• \nGrouping Qualifiers are used to group together a collection of observations within the same domain. \nExamples include --CAT and --SCAT. \n• \nResult Qualifiers describe the specific results associated with the topic variable in a Findings dataset. They \nanswer the question raised by the topic variable. Result Qualifiers are --ORRES, --STRESC, and --\nSTRESN. \n• \nSynonym Qualifiers specify an alternative name for a particular variable in an observation. Examples \ninclude ‑‑MODIFY and --DECOD, which are equivalent terms for a --TRT or --TERM topic variable, and -\n-TEST and ‑‑LOINC, which are equivalent terms for a --TESTCD. \n• \nRecord Qualifiers define additional attributes of the observation record as a whole (rather than describing a \nparticular variable within a record). Examples include --REASND, AESLIFE, and all other serious adverse \nevent (SAE) flag variables in the AE domain; AGE, SEX, and RACE in the DM domain; and --BLFL, --\nPOS, --LOC, --SPEC and --NAM in a Findings domain \n• \nVariable Qualifiers are used to further modify or describe a specific variable within an observation and are \nonly meaningful in the context of the variable they qualify. Examples include --ORRESU, --ORNRHI, and \n‑‑ORNRLO, all of which are Variable Qualifiers of --ORRES; and --DOSU, which is a Variable Qualifier \nof ‑‑DOSE. \nFor example, in the observation, \"Subject 101 had mild nausea starting on study day 6,\" the Topic variable value is \nthe term for the adverse event, \"NAUSEA\". The Identifier variable is the subject identifier, \"101\". The Timing \nvariable is the study day of the start of the event, which captures the information, \"starting on study day 6,\" whereas \nan example of a Record Qualifier is the severity, the value for which is \"MILD\". Additional Timing and Qualifier \nvariables could be included to provide the necessary detail to adequately describe an observation. \n2.2 Datasets and Domains \nObservations about study subjects are normally collected for all subjects in a series of domains. A domain is defined \nas a collection of logically related observations with a common topic. The logic of the relationship may pertain to \nthe scientific subject matter of the data or to its role in the trial. Each domain is represented by a single dataset. \nEach domain dataset is distinguished by a unique, 2-character code that should be used consistently throughout the \nsubmission. This code, which is stored in the SDTM variable named DOMAIN, is used in 4 ways: as the dataset \n"
  },
  {
    "page": 12,
    "text": "CDISC Study Data Tabulation Model Implementation Guide: Human Clinical Trials (3.4 Final) \n© 2021 Clinical Data Interchange Standards Consortium, Inc. All rights reserved  \n Page 12 \n2021-11-29 \nname, as the value of the DOMAIN variable in that dataset, as a prefix for most variable names in that dataset, and \nas a value in the RDOMAIN variable in relationship tables (see Section 8, Representing Relationships and Data). \nAll datasets are structured as flat files with rows representing observations and columns representing variables. Each \ndataset is described by metadata definitions that provide information about the variables used in the dataset. The \nmetadata are described in a data definition document (i.e., a Define-XML document) that is submitted with the data \nto regulatory authorities. The Define-XML standard (available at https://www.cdisc.org/standards/data-\nexchange/define-xml) specifies metadata attributes to describe SDTM data. \nData represented in SDTM datasets include data as originally collected or received, data from the protocol, assigned \ndata, and derived data. The SDTM lists only the name, label, and type, with a set of brief CDISC guidelines that \nprovide a general description for each variable. \nThe domain dataset models in Section 5, Models for Special-purpose Domains, and Section 6, Domain Models \nBased on the General Observation Classes, provide additional information about controlled terms or format, notes \non proper usage, and examples. See also Section 1.4.1, How to Read a Domain Specification. \n2.3 The General Observation Classes \nMost subject-level observations collected during the study should be represented according to 1 of the 3 SDTM \ngeneral observation classes: Interventions, Events, or Findings. The lists of variables allowed to be used in each of \nthese can be found in the SDTM. \n• \nThe Interventions class captures investigational, therapeutic, and other treatments that are administered to \nthe subject (with some actual or expected physiological effect) either as specified by the study protocol \n(e.g., exposure to study drug), coincident with the study assessment period (e.g., concomitant medications), \nor self‑administered by the subject (e.g., use of alcohol, tobacco, or caffeine). \n• \nThe Events class captures planned protocol milestones such as randomization and study completion, and \noccurrences, conditions, or incidents independent of planned study evaluations occurring during the trial \n(e.g., adverse events) or prior to the trial (e.g., medical history). \n• \nThe Findings class captures the observations resulting from planned evaluations to address specific tests or \nquestions (e.g., laboratory tests, ECG testing, questions listed on questionnaires). \nIn most cases, the choice of observation class appropriate to a specific collection of data can be easily determined \naccording to these descriptions. The majority of data, which typically consists of measurements or responses to \nquestions, usually at specific visits or time points, will fit the Findings general observation class. Additional \nguidance on choosing the appropriate general observation class is provided in Section 8.6.1, Guidelines for \nDetermining the General Observation Class. \nGeneral assumptions for use with all domain models and custom domains based on the general observation classes \nare described in Section 4, Assumptions for Domain Models; specific assumptions for individual domains are \nincluded with the domain models. \n2.4 Datasets Other than General Observation Class Domains \nThe SDTM includes 4 types of datasets other than those based on the general observation classes: \n• \nDomain datasets with subject-level data that do not conform to 1 of the 3 general observation classes. \nThese include Demographics (DM), Comments (CO), Subject Elements (SE), and Subject Visits (SV), and \nare described in Section 5, Models for Special-purpose Domains. \n• \nTrial Design Model (TDM) datasets, which represent information about the study design but do not contain \nsubject data. These include datasets such as Trial Arms (TA) and Trial Elements (TE) and are described in \nSection 7, Trial Design Model Datasets. \n• \nRelationship datasets, such as the RELREC and SUPP-- datasets. These are described in Section \n8, Representing Relationships and Data. \n"
  },
  {
    "page": 13,
    "text": "CDISC Study Data Tabulation Model Implementation Guide: Human Clinical Trials (3.4 Final) \n© 2021 Clinical Data Interchange Standards Consortium, Inc. All rights reserved  \n Page 13 \n2021-11-29 \n• \nStudy Reference datasets include Device Identifiers (DI) and Non-host Organism Identifiers (OI). These \nprovide structures for representing study-specific terminology used in subject data. These are described \nin Section 9, Study References. \n2.5 The SDTM Standard Domain Models \nA sponsor should only submit domain datasets that were actually collected (or directly derived from the collected \ndata) for a given study. Decisions on what data to collect should be based on the scientific objectives of the study, \nrather than the SDTM. Note that any data collected that will be submitted in an analysis (ADaM) dataset must be \ntraceable to a source in a tabulation (SDTM) dataset. \nThe collected data for a given study may use standard domains from this and other SDTM implementation guides as \nwell as additional custom domains based on the 3 general observation classes. A list of standard domains is provided \nin Section 3.2.1, Dataset-level Metadata. Final domains will be published only in an SDTM implementation guide \n(this guide or another implementation guide, e.g., SDTMIG for Medical Devices). Therapeutic-area standards \nprojects and other projects may develop proposals for additional domains. Draft versions of these domains may be \nmade available in the CDISC wiki in the SDTM Draft Domains space \n(https://wiki.cdisc.org/display/SDD/SDTM+Draft+Domains+Home). \nThese general rules apply when determining which variables to include in a domain: \n• \nThe Identifier variables, STUDYID, USUBJID, DOMAIN, and --SEQ are required in all domains based on \nthe general observation classes. Other Identifiers may be added as needed. \n• \nAny Timing variables are permissible for use in any submission dataset based on a general observation \nclass except where restricted by specific domain assumptions. \n• \nAny additional Qualifier variables from the same general observation class may be added to a domain \nmodel except where restricted by specific domain assumptions. \n• \nSponsors may not add any variables other than those described in the preceding 3 bullets. The SDTM \nallows for the inclusion of a sponsor's non-SDTM variables using the Supplemental Qualifiers special-\npurpose dataset structure, described in Section 8.4, Relating Non-standard Variable Values to a Parent \nDomain. As the SDTM continues to evolve, certain additional standard variables may be added to the \ngeneral observation classes.  \n• \nStandard variables must not be renamed or modified for novel usage. Their metadata should not be \nchanged. \n• \nA Permissible variable should be used in an SDTM dataset wherever appropriate.   \no \nIf a study includes a data item that would be represented in a Permissible variable, then \nthat variable must be included in the SDTM dataset, even if null. Refer to the Define-XML standard \n(available at https://www.cdisc.org/standards/data-exchange/define-xml) for additional details on how \nto manage no data availability. \no \nIf a study did not include a data item that would be represented in a Permissible variable, then that \nvariable should not be included in the SDTM dataset and should not be declared in the Define-XML \ndocument. \n2.6 Creating a New Domain \nThis section describes the overall process for creating a custom domain, which must be based on 1 of the 3 SDTM \ngeneral observation classes. The number of domains submitted should be based on the specific requirements of the \nstudy. To create a custom domain, \n1. Confirm that none of the existing published domains will fit the need. A custom domain may only be \ncreated if the data are different in nature and do not fit into an existing published domain. \no \nEstablish a domain of a common topic; that is, where the nature of the data is the same rather than by a \nspecific method of collection (e.g., electrocardiogram). Group and separate data within the domain \nusing --CAT, --SCAT, --METHOD, --SPEC, --LOC, and so on, as appropriate. Examples of different \n"
  },
  {
    "page": 14,
    "text": "CDISC Study Data Tabulation Model Implementation Guide: Human Clinical Trials (3.4 Final) \n© 2021 Clinical Data Interchange Standards Consortium, Inc. All rights reserved  \n Page 14 \n2021-11-29 \ntopics are: microbiology, tumor measurements, pathology/histology, vital signs, and physical exam \nresults. \no \nDo not create separate domains based on time; rather, represent both prior and current observations in \na domain (e.g., CM for all non-study medications). Note that Adverse Events (AE) and Medical \nHistory (MH) are an exception to this best practice because of regulatory reporting needs. \no \nHow collected data are used (e.g., to support analyses and/or efficacy endpoints) must not result in the \ncreation of a custom domain. For example, if blood pressure measurements are endpoints in a \nhypertension study, they must still be represented in the Vital Signs (VS) domain, as opposed to a \ncustom “efficacy” domain. Similarly, if liver function test results are of special interest, they must still \nbe represented in the Laboratory Tests (LB) domain. \no \nData that were collected on separate CRF modules or pages may fit into an existing domain (e.g., as \nseparate questionnaires into the QS domain, prior and concomitant medications in the CM domain). \no \nIf it is necessary to represent relationships between data that are hierarchical in nature (e.g., a parent \nrecord must be observed before child records), then establish a domain pair (e.g., MB/MS, PC/PP). \nNote: Domain pairs have been modeled for microbiology data (MB/MS domains) and \npharmacokinetics (PK) data (PC/PP domains) to enable dataset-level relationships to be described \nusing RELREC. The domain pair uses DOMAIN as an identifier to group parent records (e.g., MB) \nfrom child records (e.g., MS) and enables a dataset-level relationship to be described in RELREC. \nWithout using DOMAIN to facilitate description of the data relationships, RELREC, as currently \ndefined, could not be used without introducing a variable that would group data like DOMAIN. \n2. Check the SDTM Draft Domains area of the CDISC wiki \n(https://wiki.cdisc.org/display/SDD/SDTM+Draft+Domains+Home) for proposed domains developed since \nthe last published version of the SDTMIG. These proposed domains may be used as custom domains in a \nsubmission. \n3. Look for an existing, relevant domain model to serve as a prototype. If no existing model seems \nappropriate, choose the general observation class (Interventions, Events, or Findings) that best fits the data \nby considering the topic of the observation. As illustrated in the following figure, the general approach \nfor selecting variables for a custom domain is: \na. \nSelect and include the required identifier variables (e.g., STUDYID, DOMAIN, USUBJID, --SEQ) and \nany permissible Identifier variables from the SDTM.  \nb. Include the topic variable from the identified general observation class (e.g., --TESTCD for Findings) \nin the SDTM.  \nc. \nSelect and include the relevant qualifier variables from the identified general observation class in the \nSDTM. Variables belonging to other general observation classes must not be added. \nd. Select and include the applicable timing variables in the SDTM. \ne. \nDetermine the domain code, one that is not a domain code in the CDISC Controlled Terminology \nSDTM Domain Abbreviations codelist (see  https://datascience.cancer.gov/resources/cancer-\nvocabulary/cdisc-terminology). If it is desired to have this domain code be part of CDISC Controlled \nTerminology, submit a request at https://ncitermform.nci.nih.gov/ncitermform/?version=cdisc. The \nsponsor-selected, 2‑character domain code should be used consistently throughout the submission. AD, \nAX, AP, SQ, and SA may not be used as custom domain codes. \nf. \nApply the 2-character domain code to the appropriate variables in the domain. Replace all variable \nprefixes (shown in the models as “--“) with the domain code. \ng. Set the order of variables consistent with the order defined in the SDTM for the general observation \nclass. \nh. Adjust the labels of the variables only as appropriate to properly convey the meaning in the context of \nthe data being submitted in the newly created domain. Use title case for all labels (title case means to \ncapitalize the first letter of every word except for articles, prepositions, and conjunctions). \n"
  },
  {
    "page": 15,
    "text": "CDISC Study Data Tabulation Model Implementation Guide: Human Clinical Trials (3.4 Final) \n© 2021 Clinical Data Interchange Standards Consortium, Inc. All rights reserved  \n Page 15 \n2021-11-29 \ni. \nEnsure that appropriate standard variables are being properly applied by comparing their use in the \ncustom domain to their use in standard domains. \nj. \nDescribe the dataset within the Define-XML document. See Section 3.2, Using the CDISC Domain \nModels in Regulatory Submissions — Dataset Metadata. \nk. Place any non-standard (SDTM) variables in a Supplemental Qualifier dataset. Mechanisms for \nrepresenting additional non-standard qualifier variables not described in the general observation \nclasses and for defining relationships between separate datasets or records are described in Section 8.4, \nRelating Non-standard Variable Values to a Parent Domain. \n \nFigure. Creating a New Domain \n \n2.7 SDTM Variables Not Allowed in the SDTMIG \nThis section identifies those SDTM variables that either (1) should not be used in SDTM-compliant data tabulations \nof clinical trials data or (2) have not yet been evaluated for use in human clinical trials. \nThe following SDTM variables, defined for use in nonclinical studies (SEND), must NEVER be used in the \nsubmission of SDTM-based data for human clinical trials: \n• \n--USCHFL (Interventions, Events, Findings) \n• \n--METHOD (Interventions) \n• \n--RSTIND (Interventions, Findings) \n• \n--RSTMOD (Interventions, Findings) \n• \n--IMPLBL (Findings) \n• \n--RESLOC (Findings) \n• \n--DTHREL (Findings) \n• \n--EXCLFL (Findings) \n• \n--REASEX (Findings) \n• \nFETUSID (Identifiers) \n• \nRPHASE (Timing Variables) \n• \nRPPLDY (Timing Variables) \n• \nRPPLSTDY (Timing Variables) \n• \nRPPLENDY (Timing Variables) \n"
  },
  {
    "page": 16,
    "text": "CDISC Study Data Tabulation Model Implementation Guide: Human Clinical Trials (3.4 Final) \n© 2021 Clinical Data Interchange Standards Consortium, Inc. All rights reserved  \n Page 16 \n2021-11-29 \n• \n--NOMDY (Timing Variables) \n• \n--NOMLBL (Timing Variables) \n• \n--RPDY (Timing Variables) \n• \n--RPSTDY (Timing Variables) \n• \n--RPENDY (Timing Variables) \n• \n--DETECT (Timing Variables) \nThe following variables can be used for nonclinical studies (SEND) but must NEVER be used in the Demographics \n(DM) domain for human clinical trials, where all subjects are human. See Section 9.2, Non-host Organism \nIdentifiers, for information about representing taxonomic information for non-host organisms such as bacteria and \nviruses. \n• \nSPECIES (Demographics) \n• \nSTRAIN (Demographics) \n• \nSBSTRAIN (Demographics) \n• \nRPATHCD (Demographics) \nThe following variables have not been evaluated for use in human clinical trials and must therefore be used with \nextreme caution:    \n• \n--ANTREG (Findings) \n• \n--CHRON (Findings) \n• \n--DISTR (Findings) \n• \nSETCD (Demographics) \nThe use of SETCD additionally requires the use of the Trials Sets domain. \nThe following identifier variable can be used for nonclinical studies (SEND), and may be used in human clinical \ntrials when appropriate: \n• \nPOOLID \nThe use of POOLID additionally requires the use of the Pool Definition dataset. \nOther variables defined in the SDTM are allowed for use as defined in this SDTMIG except when explicitly stated. \nCustom domains, created following the guidance in Section 2.6, Creating a New Domain, may utilize any \nappropriate qualifier variables from the selected general observation class. \n \n \n"
  },
  {
    "page": 17,
    "text": "CDISC Study Data Tabulation Model Implementation Guide: Human Clinical Trials (3.4 Final) \n© 2021 Clinical Data Interchange Standards Consortium, Inc. All rights reserved  \n Page 17 \n2021-11-29 \n3 Submitting Data in Standard Format \n3.1 Standard Metadata for Dataset Contents and Attributes \nThe SDTMIG provides standard descriptions of some of the most commonly used data domains, with metadata \nattributes. These include descriptive metadata attributes that should be included in a Define-XML document. In \naddition, the CDISC domain models include 2 shaded columns that are not sent to the FDA, but which assist \nsponsors in preparing their datasets: \n• \nThe CDISC Notes column provides information regarding the relevant use of each variable. \n• \nThe Core column indicates how a variable is classified (see Section 4.1.5, SDTM Core Designations). \nThe domain models in Section 6, Domain Models Based on the General Observation Classes, illustrate how to apply \nthe SDTM when creating a specific domain dataset. In particular, these models illustrate the selection of a subset of \nthe variables offered in 1 of the general observation classes, along with applicable timing variables. The models also \nshow how a standard variable from a general observation class should be adjusted to meet the specific content needs \nof a particular domain, including making the label more meaningful, specifying controlled terminology, and creating \ndomain-specific notes and examples. Thus, the domain models not only demonstrate how to apply the model for the \nmost common domains but also give insight on how to apply general model concepts to other domains not yet \ndefined by CDISC. \n3.2 Using the CDISC Domain Models in Regulatory \nSubmissions – Dataset Metadata \nThe Define-XML document that accompanies a submission should also describe each dataset that is included in the \nsubmission and describe the natural key structure of each dataset. Most studies will include Demographics (DM) and \na set of safety domains based on the 3 general observation classes—typically including Exposure (EX), Concomitant \nand Prior Medications (CM), Adverse Events (AE), Disposition (DS), Medical History (MH), Laboratory Test \nResults (LB), and Vital Signs (VS). However, choosing which data to submit will depend on the protocol and the \nneeds of the regulatory review division or agency. Dataset definition metadata should include the dataset filenames, \ndescriptions, locations, structures, class, purpose, and keys, as shown in Section 3.2.1, Dataset-level Metadata. In \naddition, comments can also be provided where needed. \n3.2.1 Dataset-level Metadata \nNote that the key variables shown in this table are examples only. A sponsor’s actual key structure may be \ndifferent. The order of classes and datasets in this table is not intended as a normative order of datasets in a \nsubmission. \n \nDataset \nDescription \nClass \nStructure \nPurpose \nKeys \nLocation \nCO \nComments \nSpecial \nPurpose \nOne record per comment per \nsubject \nTabulation STUDYID, USUBJID, \nIDVAR, COREF, CODTC \nco.xpt \nDM \nDemographics \nSpecial \nPurpose \nOne record per subject \nTabulation STUDYID, USUBJID \ndm.xpt \nSE \nSubject Elements \nSpecial \nPurpose \nOne record per actual Element per \nsubject \nTabulation STUDYID, USUBJID, \nETCD, SESTDTC \nse.xpt \nSM \nSubject Disease \nMilestones \nSpecial \nPurpose \nOne record per Disease Milestone \nper subject \nTabulation STUDYID, USUBJID, \nMIDS \nsm.xpt \nSV \nSubject Visits \nSpecial \nPurpose \nOne record per actual or planned \nvisit per subject \nTabulation STUDYID, USUBJID, \nSVTERM \nsv.xpt \nAG \nProcedure Agents \nInterventions One record per recorded \nintervention occurrence per subject \nTabulation STUDYID, USUBJID, \nAGTRT, AGSTDTC \nag.xpt \nCM \nConcomitant/Prior \nMedications \nInterventions One record per recorded \nintervention occurrence or constant-\ndosing interval per subject \nTabulation STUDYID, USUBJID, \nCMTRT, CMSTDTC \ncm.xpt \nEC \nExposure as \nCollected \nInterventions One record per protocol-specified \nstudy treatment, collected-dosing \ninterval, per subject, per mood \nTabulation STUDYID, USUBJID, \nECTRT, ECSTDTC, \nECMOOD \nec.xpt \n"
  },
  {
    "page": 18,
    "text": "CDISC Study Data Tabulation Model Implementation Guide: Human Clinical Trials (3.4 Final) \n© 2021 Clinical Data Interchange Standards Consortium, Inc. All rights reserved  \n Page 18 \n2021-11-29 \nDataset \nDescription \nClass \nStructure \nPurpose \nKeys \nLocation \nEX \nExposure \nInterventions One record per protocol-specified \nstudy treatment, constant-dosing \ninterval, per subject \nTabulation STUDYID, USUBJID, \nEXTRT, EXSTDTC \nex.xpt \nML \nMeal Data \nInterventions One record per food product \noccurrence or constant intake \ninterval per subject \nTabulation STUDYID, USUBJID, \nMLTRT, MLSTDTC \nml.xpt \nPR \nProcedures \nInterventions One record per recorded procedure \nper occurrence per subject \nTabulation STUDYID, USUBJID, \nPRTRT, PRSTDTC \npr.xpt \nSU \nSubstance Use \nInterventions One record per substance type per \nreported occurrence per subject \nTabulation STUDYID, USUBJID, \nSUTRT, SUSTDTC \nsu.xpt \nAE \nAdverse Events \nEvents \nOne record per adverse event per \nsubject \nTabulation STUDYID, USUBJID, \nAEDECOD, AESTDTC \nae.xpt \nBE \nBiospecimen Events \nEvents \nOne record per instance per \nbiospecimen event per biospecimen \nidentifier per subject \nTabulation STUDYID, USUBJID, \nBEREFID, BETERM, \nBESDTC \nbe.xpt \nCE \nClinical Events \nEvents \nOne record per event per subject \nTabulation STUDYID, USUBJID, \nCETERM, CESTDTC \nce.xpt \nDS \nDisposition \nEvents \nOne record per disposition status or \nprotocol milestone per subject \nTabulation STUDYID, USUBJID, \nDSDECOD, DSSTDTC \nds.xpt \nDV \nProtocol Deviations \nEvents \nOne record per protocol deviation \nper subject \nTabulation STUDYID, USUBJID, \nDVTERM, DVSTDTC \ndv.xpt \nHO \nHealthcare \nEncounters \nEvents \nOne record per healthcare \nencounter per subject \nTabulation STUDYID, USUBJID, \nHOTERM, HOSTDTC \nho.xpt \nMH \nMedical History \nEvents \nOne record per medical history \nevent per subject \nTabulation STUDYID, USUBJID, \nMHDECOD \nmh.xpt \nBS \nBiospecimen \nFindings \nFindings \nOne record per measurement per \nbiospecimen identifier per subject \nTabulation STUDYID, USUBJID, \nBSREFID, BSTESTCD \nbs.xpt \nCP \nCell Phenotype \nFindings \nFindings \nOne record per test per specimen \nper timepoint per visit per subject \nTabulation STUDYID, USUBJID, \nCPTESTCD, CPSPEC, \nVISITNUM, CPTPTREF, \nCPTPTNUM \ncp.xpt \nCV \nCardiovascular \nSystem Findings \nFindings \nOne record per finding or result per \ntime point per visit per subject \nTabulation STUDYID, USUBJID, \nVISITNUM, CVTESTCD, \nCVTPTREF, CVTPTNUM \ncv.xpt \nDA \nProduct \nAccountability \nFindings \nOne record per product \naccountability finding per subject \nTabulation STUDYID, USUBJID, \nDATESTCD, DADTC \nda.xpt \nDD \nDeath Details \nFindings \nOne record per finding per subject \nTabulation STUDYID, USUBJID, \nDDTESTCD, DDDTC \ndd.xpt \nEG \nECG Test Results \nFindings \nOne record per ECG observation \nper replicate per time point or one \nrecord per ECG observation per \nbeat per visit per subject \nTabulation STUDYID, USUBJID, \nEGTESTCD, VISITNUM, \nEGTPTREF, \nEGTPTNUM \neg.xpt \nFT \nFunctional Tests \nFindings \nOne record per Functional Test \nfinding per time point per visit per \nsubject \nTabulation STUDYID, USUBJID, \nTESTCD, VISITNUM, \nFTTPTREF, FTTPTNUM \nft.xpt \nGF \nGenomics Findings \nFindings \nOne record per finding per \nobservation per biospecimen per \nsubject \nTabulation STUDYID, USUBJID, \nGFTESTCD, GFSPEC, \nVISITNUM, GFTPTREF, \nGFTPTNUM \ngf.xpt \nIE \nInclusion/Exclusion \nCriteria Not Met \nFindings \nOne record per inclusion/exclusion \ncriterion not met per subject \nTabulation STUDYID, USUBJID, \nIETESTCD \nie.xpt \nIS \nImmunogenicity \nSpecimen \nAssessments \nFindings \nOne record per test per visit per \nsubject \nTabulation STUDYID, USUBJID, \nISTESTCD, ISBDAGNT, \nISSCMBCL, ISTSTOPO, \nVISITNUM \nis.xpt \nLB \nLaboratory Test \nResults \nFindings \nOne record per lab test per time \npoint per visit per subject \nTabulation STUDYID, USUBJID, \nLBTESTCD, LBSPEC, \nVISITNUM, LBTPTREF, \nLBTPTNUM \nlb.xpt \nMB \nMicrobiology \nSpecimen \nFindings \nOne record per microbiology \nspecimen finding per time point per \nvisit per subject \nTabulation STUDYID, USUBJID, \nMBTESTCD, VISITNUM, \nMBTPTREF, \nMBTPTNUM \nmb.xpt \nMI \nMicroscopic Findings Findings \nOne record per finding per \nspecimen per subject \nTabulation STUDYID, USUBJID, \nMISPEC, MITESTCD \nmi.xpt \nMK \nMusculoskeletal \nSystem Findings \nFindings \nOne record per assessment per visit \nper subject \nTabulation STUDYID, USUBJID, \nVISITNUM, MKTESTCD, \nMKLOC, MKLAT \nmk.xpt \nMS \nMicrobiology \nSusceptibility \nFindings \nOne record per microbiology \nsusceptibility test (or other \norganism-related finding) per \norganism found in MB \nTabulation STUDYID, USUBJID, \nMSTESTCD, VISITNUM, \nMSTPTREF, \nMSTPTNUM \nms.xpt \n"
  },
  {
    "page": 19,
    "text": "CDISC Study Data Tabulation Model Implementation Guide: Human Clinical Trials (3.4 Final) \n© 2021 Clinical Data Interchange Standards Consortium, Inc. All rights reserved  \n Page 19 \n2021-11-29 \nDataset \nDescription \nClass \nStructure \nPurpose \nKeys \nLocation \nNV \nNervous System \nFindings \nFindings \nOne record per finding per location \nper time point per visit per subject \nTabulation STUDYID, USUBJID, \nVISITNUM, NVTPTNUM, \nNVLOC, NVTESTCD \nnv.xpt \nOE \nOphthalmic \nExaminations \nFindings \nOne record per ophthalmic finding \nper method per location, per time \npoint per visit per subject \nTabulation STUDYID, USUBJID, \nFOCID, OETESTCD, \nOETSTDTL, \nOEMETHOD, OELOC, \nOELAT, OEDIR, \nVISITNUM, OEDTC, \nOETPTREF, \nOETPTNUM, \nOEREPNUM \noe.xpt \nPC \nPharmacokinetics \nConcentrations \nFindings \nOne record per sample \ncharacteristic or time-point \nconcentration per reference time \npoint or per analyte per subject \nTabulation STUDYID, USUBJID, \nPCTESTCD, VISITNUM, \nPCTPTREF, PCTPTNUM \npc.xpt \nPE \nPhysical \nExamination \nFindings \nOne record per body system or \nabnormality per visit per subject \nTabulation STUDYID, USUBJID, \nPETESTCD, VISITNUM \npe.xpt \nPP \nPharmacokinetics \nParameters \nFindings \nOne record per PK parameter per \ntime-concentration profile per \nmodeling method per subject \nTabulation STUDYID, USUBJID, \nPPTESTCD, PPCAT, \nVISITNUM, PPRFTDTC \npp.xpt \nQS \nQuestionnaires \nFindings \nOne record per questionnaire per \nquestion per time point per visit per \nsubject \nTabulation STUDYID, USUBJID, \nQSCAT, QSSCAT, \nVISITNUM, QSTESTCD \nqs.xpt \nRE \nRespiratory System \nFindings \nFindings \nOne record per finding or result per \ntime point per visit per subject \nTabulation STUDYID, USUBJID, \nVISITNUM, RETESTCD, \nRETPTNUM, \nREREPNUM \nre.xpt \nRP \nReproductive \nSystem Findings \nFindings \nOne record per finding or result per \ntime point per visit per subject \nTabulation STUDYID, DOMAIN, \nUSUBJID, RPTESTCD, \nVISITNUM \nrp.xpt \nRS \nDisease Response \nand Clin \nClassification \nFindings \nOne record per response \nassessment or clinical classification \nassessment per time point per visit \nper subject per assessor per \nmedical evaluator \nTabulation STUDYID, USUBJID, \nRSTESTCD, VISITNUM, \nRSTPTREF, \nRSTPTNUM, RSEVAL, \nRSEVALID \nrs.xpt \nSC \nSubject \nCharacteristics \nFindings \nOne record per characteristic per \nvisit per subject. \nTabulation STUDYID, USUBJID, \nSCTESTCD, VISITNUM \nsc.xpt \nSS \nSubject Status \nFindings \nOne record per status per visit per \nsubject \nTabulation STUDYID, USUBJID, \nSSTESTCD, VISITNUM \nss.xpt \nTR \nTumor/Lesion \nResults \nFindings \nOne record per tumor \nmeasurement/assessment per visit \nper subject per assessor \nTabulation STUDYID, USUBJID, \nTRTESTCD, TREVALID, \nVISITNUM \ntr.xpt \nTU \nTumor/Lesion \nIdentification \nFindings \nOne record per identified tumor per \nsubject per assessor \nTabulation STUDYID, USUBJID, \nTUEVALID, TULNKID \ntu.xpt \nUR \nUrinary System \nFindings \nFindings \nOne record per finding per location \nper per visit per subject \nTabulation STUDYID, USUBJID, \nVISITNUM, URTESTCD, \nURLOC, URLAT, URDIR \nur.xpt \nVS \nVital Signs \nFindings \nOne record per vital sign \nmeasurement per time point per \nvisit per subject \nTabulation STUDYID, USUBJID, \nVSTESTCD, VISITNUM, \nVSTPTREF, VSTPTNUM \nvs.xpt \nFA \nFindings About \nEvents or \nInterventions \nFindings \nAbout \nOne record per finding, per object, \nper time point, per visit per subject \nTabulation STUDYID, USUBJID, \nFATESTCD, FAOBJ, \nVISITNUM, FATPTREF, \nFATPTNUM \nfa.xpt \nSR \nSkin Response \nFindings \nAbout \nOne record per finding, per object, \nper time point, per visit per subject \nTabulation STUDYID, USUBJID, \nSRTESTCD, SROBJ, \nVISITNUM, SRTPTREF, \nSRTPTNUM \nsr.xpt \nTA \nTrial Arms \nTrial Design \nOne record per planned Element \nper Arm \nTabulation STUDYID, ARMCD, \nTAETORD \nta.xpt \nTD \nTrial Disease \nAssessments \nTrial Design \nOne record per planned constant \nassessment period \nTabulation STUDYID, TDORDER \ntd.xpt \nTE \nTrial Elements \nTrial Design \nOne record per planned Element \nTabulation STUDYID, ETCD \nte.xpt \nTI \nTrial \nInclusion/Exclusion \nCriteria \nTrial Design \nOne record per I/E criterion \nTabulation STUDYID, IETESTCD \nti.xpt \nTM \nTrial Disease \nMilestones \nTrial Design \nOne record per Disease Milestone \ntype \nTabulation STUDYID, MIDSTYPE \ntm.xpt \nTS \nTrial Summary \nTrial Design \nOne record per trial summary \nparameter value \nTabulation STUDYID, TSPARMCD, \nTSSEQ \nts.xpt \n"
  },
  {
    "page": 20,
    "text": "CDISC Study Data Tabulation Model Implementation Guide: Human Clinical Trials (3.4 Final) \n© 2021 Clinical Data Interchange Standards Consortium, Inc. All rights reserved  \n Page 20 \n2021-11-29 \nDataset \nDescription \nClass \nStructure \nPurpose \nKeys \nLocation \nTV \nTrial Visits \nTrial Design \nOne record per planned Visit per \nArm \nTabulation STUDYID, ARM, VISIT \ntv.xpt \nRELREC \nRelated Records \nRelationship \nOne record per related record, \ngroup of records or dataset \nTabulation STUDYID, RDOMAIN, \nUSUBJID, IDVAR, \nIDVARVAL, RELID \nrelrec.xpt \nRELSPEC Related Specimens \nRelationship \nOne record per specimen identifier \nper subject \nTabulation STUDYID, USUBJID, \nREFID \nrelspec.xpt \nRELSUB \nRelated Subjects \nRelationship \nOne record per relationship per \nrelated subject per subject \nTabulation STUDYID, USUBJID, \nRSUBJID, SREL \nrelsub.xpt \nSUPP-- \nSupplemental \nQualifiers for \n[domain name] \nRelationship \nOne record per supplemental \nqualifier per related parent domain \nrecord(s) \nTabulation STUDYID, RDOMAIN, \nUSUBJID, IDVAR, \nIDVARVAL, QNAM \nsupp--.xpt \nOI \nNon-host Organism \nIdentifiers \nStudy \nReference \nOne record per taxon per non-host \norganism \nTabulation NHOID, OISEQ \noi.xpt \n \nSeparate Supplemental Qualifier datasets of the form supp--.xpt are required. See Section 8.4, Relating Non-\nstandard Variable Values to a Parent Domain. \n \n3.2.1.1 Primary Keys \nThe table in Section 3.2.1, Dataset-level Metadata, shows examples of what a sponsor might submit as variables that \ncomprise the primary key for SDTM datasets. Because the purpose of the Keys column is to aid reviewers in \nunderstanding the structure of a dataset, sponsors should list all of the natural keys for the dataset. These keys should \ndefine uniqueness for records within a dataset, and may define a record sort order. The identified keys for each \ndataset should be consistent with the description of the dataset structure as described in the Define-XML document. \nFor all the general observation-class domains (and for some special-purpose domains), the --SEQ variable was \ncreated so that a unique record could be identified consistently across all of these domains via its use, along with \nSTUDYID, USUBJID, and DOMAIN. In most domains, --SEQ will be a surrogate key for a set of variables that \ncomprise the natural key. In certain instances, a supplemental qualifier (SUPP--) variable might also contribute to \nthe natural key of a record for a particular domain. See Section 4.1.9, Assigning Natural Keys in the Metadata, for \nhow this should be represented, and for additional information on keys. \nDefinitions \nA natural key is a set of data (1 or more columns of an entity) that uniquely identifies that entity and distinguishes it \nfrom any other row in the table. The advantage of natural keys is that they exist already; one does not need to \nintroduce a new, “unnatural” value to the data schema. One of the difficulties in choosing a natural key is that just \nabout any natural key one can think of has the potential to change. Because they have business meaning, natural \nkeys are effectively coupled to the business, and they may need to be reworked when business requirements change. \nAn example of such a change in clinical trials data would be the addition of a position or location that becomes a \nkey in a new study, but which was not collected in previous studies. \nA surrogate key is a single-part, artificially established identifier for a record. Surrogate key assignment is a special \ncase of derived data, one where a portion of the primary key is derived. A surrogate key is immune to changes in \nbusiness needs. In addition, the key depends on only 1 field, so it is compact. A common way of deriving surrogate \nkey values is to assign integer values sequentially. The --SEQ variable in the SDTM datasets is an example of a \nsurrogate key for most datasets; in some instances, however, --SEQ might be a part of a natural key as a replacement \nfor what might have been a key (e.g., a repeat sequence number) in the sponsor's database. \n3.2.1.2 CDISC Submission Value-level Metadata \nIn general, findings data models are closely related to normalized, relational data models in a vertical structure of 1 \nrecord per observation. Because general observation class data structures are fixed, sometimes information that \nmight appear as columns in a more horizontal (denormalized) structure in presentations and reports will instead be \nrepresented as rows in an SDTM Findings structure. Because many different types of observations are all presented \nin the same structure, there is a need to provide additional metadata to describe expected properties that differentiate \n(e.g., hematology lab results from serum chemistry lab results in terms of data type, standard units, and other \nattributes). \nFor example, the Vital Signs (VS) data domain could contain subject records related to diastolic and systolic blood \npressure, height, weight, and body mass index (BMI). These data are all submitted in the normalized SDTM \n"
  },
  {
    "page": 21,
    "text": "CDISC Study Data Tabulation Model Implementation Guide: Human Clinical Trials (3.4 Final) \n© 2021 Clinical Data Interchange Standards Consortium, Inc. All rights reserved  \n Page 21 \n2021-11-29 \nFindings structure of 1 row per vital signs measurement. This means that there could be 5 records per subject (1 for \neach test or measurement) for a single visit or time point, with the parameter names stored in the Test Code/Name \nvariables, and the parameter values stored in result variables. Because the unique test code/names could have \ndifferent attributes (e.g., different origins, roles, definitions) there would be a need to provide value-level metadata \nfor this information. \nThe value-level metadata should be provided as a separate section of the Define-XML document. For details on the \nCDISC Define-XML standard, see https://www.cdisc.org/standards/data-exchange/define-xml. \n3.2.2 Conformance \nConformance with the SDTMIG domain models is minimally indicated by: \n• \nFollowing the complete metadata structure for data domains \n• \nFollowing SDTMIG domain models wherever applicable \n• \nUsing SDTM-specified standard domain names and prefixes where applicable \n• \nUsing SDTM-specified standard variable names \n• \nUsing SDTM-specified data types for all variables \n• \nFollowing SDTM-specified controlled terminology and format guidelines for variables, when provided \n• \nIncluding all collected and relevant derived data in one of the standard domains, special-purpose datasets, \nor general observation class structures \n• \nIncluding all Required and Expected variables as columns in standard domains, and ensuring that all \nRequired variables are populated \n• \nEnsuring that each record in a dataset includes the appropriate Identifier and Timing variables, as well as a \nTopic variable \n• \nConforming to all business rules described in the CDISC Notes column and general and domain-specific \nassumptions \n \n \n"
  },
  {
    "page": 22,
    "text": "CDISC Study Data Tabulation Model Implementation Guide: Human Clinical Trials (3.4 Final) \n© 2021 Clinical Data Interchange Standards Consortium, Inc. All rights reserved  \n Page 22 \n2021-11-29 \n4 Assumptions for Domain Models \n4.1 General Domain Assumptions \n4.1.1 Review Study Data Tabulation Model and Implementation Guide \nReview the SDTM as well as this complete implementation guide before attempting to use any of the individual \ndomain models. \n4.1.2 Relationship to Analysis Datasets \nSpecific guidance on preparing analysis datasets can be found in the CDISC Analysis Data Model (ADaM) \nImplementation Guide and other ADaM documents, available \nat https://www.cdisc.org/standards/foundational/adam. \n4.1.3 Additional Timing Variables \nAdditional Timing variables can be added as needed to a standard domain model based on the 3 general observation \nclasses, except for the cases specified in Assumption 4.4.8, Date and Time Reported in a Domain Based on \nFindings. Timing variables can be added to special-purpose domains only where specified in the SDTMIG domain \nmodel assumptions. Timing variables cannot be added to SUPPQUAL datasets or to RELREC (described in Section \n8, Representing Relationships and Data). \n4.1.3.1 EPOCH Variable Guidance \nWhen EPOCH is included in a Findings class domain, it should be based on the --DTC variable, since this is the \ndate/time of the test or, for tests performed on specimens, the date/time of specimen collection. For observations in \nInterventions or Events class domains, EPOCH should be based on the --STDTC variable, since this is the start of \nthe intervention or event. A possible, though unlikely, exception would be a finding based on an interval specimen \ncollection that started in one epoch but ended in another.  --ENDTC might be a more appropriate basis for EPOCH \nin such a case. \nSponsors should not impute EPOCH values, but should, where possible, assign EPOCH values on the basis of CRF \ninstructions and structure, even if EPOCH was not directly collected and date/time data was not collected with \nsufficient precision to permit assignment of an observation to an EPOCH on the basis of date/time data alone. If it is \nnot possible to determine the epoch of an observation, then EPOCH should be null. Methods for assigning EPOCH \nvalues can be described in the Define-XML document. \nBecause EPOCH is a study-design construct, it is not applicable to interventions or events that started before the \nsubject's participation in a study, nor to findings performed before participation in a study. For such records, \nEPOCH should be null. Note that a subject's participation in a study includes screening, which generally occurs \nbefore the reference start date (RFSTDTC) in the Demographics (DM) domain. \n4.1.4 Order of the Variables \nThe order of variables in the Define-XML document must reflect the order of variables in the dataset. The order of \nvariables in CDISC domain models has been chosen to facilitate the review of the models and application of the \nmodels. Variables for the 3 general observation classes must be ordered with Identifiers variables first, followed by \nTopic, Qualifier, and Timing variables. Within each role, variables must be ordered as shown in SDTM Sections \n3.1.1, The Interventions Observation Class; 3.1.2, The Events Observation Class; 3.1.3, The Findings Observation \nClass; 3.1.3.1, Findings About Events or Interventions; 3.1.4, Identifiers for All Classes; and 3.1.5, Timing \nVariables for All Classes. \n4.1.5 SDTM Core Designations \nThree categories are specified in the Core column in the domain models: \n"
  },
  {
    "page": 23,
    "text": "CDISC Study Data Tabulation Model Implementation Guide: Human Clinical Trials (3.4 Final) \n© 2021 Clinical Data Interchange Standards Consortium, Inc. All rights reserved  \n Page 23 \n2021-11-29 \n• \nA Required variable is any variable that is basic to the identification of a data record (i.e., essential key \nvariables and a topic variable) or is necessary to make the record meaningful. Required variables must \nalways be included in the dataset and cannot be null for any record. \n• \nAn Expected variable is any variable necessary to make a record useful in the context of a specific domain. \nExpected variables may contain some null values, but in most cases will not contain null values for every \nrecord. When the study does not include the data item for an expected variable, however, a null column \nmust still be included in the dataset, and a comment must be included in the Define-XML document to state \nthat the study does not include the data item. \n• \nA Permissible variable should be used in an SDTM dataset wherever appropriate. Although domain \nspecification tables list only some of the identifier, timing, and general observation class variables listed in \nthe SDTM, all are permissible unless specifically restricted in this implementation guide (see Section 2.7, \nSDTM Variables Not Allowed in the SDTMIG) or by specific domain assumptions. \no \nDomain assumptions that say a Permissible variable is \"generally not used\" do not prohibit use of the \nvariable. \no \nIf a study includes a data item that would be represented in a Permissible variable, then \nthat variable must be included in the SDTM dataset, even if null. Indicate no data were available for \nthat variable in the Define-XML document. \no \nIf a study did not include a data item that would be represented in a Permissible variable, then that \nvariable should not be included in the SDTM dataset and should not be declared in the Define-XML \ndocument. \n4.1.6 Additional Guidance on Dataset Naming \nSDTM datasets are normally named to be consistent with the domain code; for example, the Demographics dataset \n(DM) is named dm.xpt. (See the SDTM Domain Abbreviation codelist, C66734, in CDISC Controlled Terminology \n(https://www.cancer.gov/research/resources/terminology/cdisc) for standard domain codes). Exceptions to this rule \nare described in Section 4.1.7, Splitting Domains, for general observation class datasets and in Section 8, \nRepresenting Relationships and Data, for RELREC and SUPP-- datasets. \nIn some cases, sponsors may need to define new custom domains and may be concerned that CDISC domain codes \ndefined in the future will conflict with those they choose to use. To eliminate any risk of a sponsor using a name that \nCDISC later determines to have a different meaning, domain codes beginning with the letters X, Y, and Z have been \nreserved for the creation of custom domains. Any letter or number may be used in the second position. Note the use \nof codes beginning with X, Y, or Z is optional, and not required for custom domains. \n4.1.7 Splitting Domains \nSponsors may choose to split a domain of topically related information into physically separate datasets. \n• \nA domain based on a general observation class may be split according to values in --CAT. When a domain \nis split on --CAT, --CAT must not be null. \n• \nThe Findings About (FA) domain (see Section 6.4.4, Findings About Events or Interventions) may \nalternatively be split based on the domain of the value in --OBJ. For example, FACM would store findings \nabout Concomitant/Prior Medications (CM) records. See Section 6.4.2, Naming Findings About Domains, \nfor more details. \nThe following rules must be adhered to when splitting a domain into separate datasets to ensure they can be \nappended back into 1 domain dataset: \n1. The value of DOMAIN must be consistent across the separate datasets as it would have been if they had not \nbeen split (e.g., QS, FA). \n2. All variables that require a domain prefix (e.g., --TESTCD, --LOC) must use the value of DOMAIN as the \nprefix value (e.g., QS, FA). \n3. --SEQ must be unique within USUBJID for all records across all the split datasets. If there are 1000 records \nfor a USUBJID across the separate datasets, all 1000 records need unique values for --SEQ. \n"
  },
  {
    "page": 24,
    "text": "CDISC Study Data Tabulation Model Implementation Guide: Human Clinical Trials (3.4 Final) \n© 2021 Clinical Data Interchange Standards Consortium, Inc. All rights reserved  \n Page 24 \n2021-11-29 \n4. When relationship datasets (e.g., SUPPxx, FAxx, CO, RELREC) relate back to split parent domains, \nIDVAR would generally be --SEQ. When IDVAR is a value other than --SEQ (e.g., --GRPID, --REFID, --\nSPID), care should be used to ensure that the parent records across the split datasets have unique values for \nthe variable specified in IDVAR, so that related children records do not accidentally join back to incorrect \nparent records. \n5. Permissible variables included in one split dataset need not be included in all split datasets. \n6. For domains with 2-letter domain codes (i.e., other than SUPPxx and RELREC), split dataset names can be \nup to 4 characters in length. For example, if splitting by --CAT, dataset names would be the domain name \nplus up to 2 additional characters (e.g., QS36 for SF-36). If splitting Findings About by parent domain, then \nthe dataset name would be the domain code, \"FA\", plus the 2-character domain code for parent domain \ncode (e.g., \"FACM\"). The 4-character dataset-name limitation allows the use of a Supplemental Qualifier \ndataset associated with the split dataset. \n7. Supplemental Qualifier datasets for split domains would also be split. The nomenclature would include the \nadditional 1 to 2 characters used to identify the split dataset (e.g., SUPPQS36, SUPPFACM). The value of \nRDOMAIN in the SUPP-- datasets would be the 2-character domain code (e.g., QS, FA). \n8. In RELREC, if a dataset-level relationship is defined for a split Findings About domain, then RDOMAIN \nmay contain the 4-character dataset name, rather than the domain name \"FA\", as shown in the following \nexample.  \nrelrec.xpt \nRow \nSTUDYID \nRDOMAIN \nUSUBJID \nIDVAR \nIDVARVAL \nRELTYPE \nRELID \n1 \nABC \nCM \n \nCMSPID \n \nONE \n1 \n2 \nABC \nFACM \n \nFASPID \n \nMANY \n1 \n9. See the SDTM Implementation Guide: Associated Persons \n(https://www.cdisc.org/standards/foundational/sdtmig/) for the naming of split AP datasets. \n10. See the SDTM Define-XML specification (https://www.cdisc.org/standards/data-exchange/define-xml) for \ndetails regarding metadata representation when a domain is split into different datasets. For additional \nexamples, see the Metadata Submission Guideline (MSG) for SDTMIG \n(https://www.cdisc.org/standards/foundational/sdtmig/). \nNote that submission of split SDTM domains may be subject to additional dataset-splitting conventions as defined \nby regulators via technical specifications and/or as negotiated with regulatory reviewers. \n \n4.1.7.1 Example of Splitting Questionnaires \nQRS datasets are routinely created and reviewed for the individual QRS instrument. This example shows the QS \ndomain data split into 3 datasets: Clinical Global Impression (QSCG), Pain Intensity (QSPI), and Satisfaction of \nLife Scale (QSSW). Each dataset represents a subset of the QS domain data and has only 1 value of QSCAT. \n"
  },
  {
    "page": 25,
    "text": "CDISC Study Data Tabulation Model Implementation Guide: Human Clinical Trials (3.4 Final) \n© 2021 Clinical Data Interchange Standards Consortium, Inc. All rights reserved  \n Page 25 \n2021-11-29 \nQS Domains \nDataset for Clinical Global Impressions \nqscg.xpt \nRow \nSTUDYID \nDOMAIN \nUSUBJID \nQSSEQ \nQSTESTCD \nQSTEST \nQSCAT \nQSORRES \nQSSTRESC \nQSSTRESN \nQSLOBXFL \nVISITNUM \nVISIT \nVISITDY \nQSDTC \nQSDY \n1 \nCDISC01 \nQS \nCDISC01.100008 \n1 \nCGI0201 \nCGI02-Severity \nCGI \nModerate \n4 \n4 \nY \n1 \nWEEK 1 \n1 \n2003-04-15 \n1 \n2 \nCDISC01 \nQS \nCDISC01.100008 \n2 \nCGI0201 \nCGI02-Severity \nCGI \nMild \n3 \n3 \n \n2 \nWEEK 2 \n7 \n2003-04-21 \n7 \n3 \nCDISC01 \nQS \nCDISC01.100008 \n3 \nCGI0202 \nCGI02-Change \nCGI \nMinimally Improved \n3 \n3 \n \n2 \nWEEK 2 \n7 \n2003-04-21 \n7 \n4 \nCDISC01 \nQS \nCDISC01.100008 \n4 \nCGI0203 \nCGI02-Improvement \nCGI \nA little better \n3 \n3 \n \n2 \nWEEK 2 \n7 \n2003-04-21 \n7 \n5 \nCDISC01 \nQS \nCDISC01.100014 \n1 \nCGI0201 \nCGI02-Severity \nCGI \nModerate \n4 \n4 \nY \n1 \nWEEK 1 \n1 \n2003-04-15 \n1 \n6 \nCDISC01 \nQS \nCDISC01.100014 \n2 \nCGI0201 \nCGI02-Severity \nCGI \nMild \n3 \n3 \n \n2 \nWEEK 2 \n7 \n2003-04-21 \n7 \n7 \nCDISC01 \nQS \nCDISC01.100014 \n3 \nCGI0202 \nCGI02-Change \nCGI \nMinimally Improved \n3 \n3 \n \n2 \nWEEK 2 \n7 \n2003-04-21 \n7 \n8 \nCDISC01 \nQS \nCDISC01.100014 \n4 \nCGI0203 \nCGI02-Improvement \nCGI \nA little better \n3 \n3 \n \n2 \nWEEK 2 \n7 \n2003-04-21 \n7 \nDataset for Pain Intensity \nqspi.xpt \nRow STUDYID DOMAIN USUBJID \nQSSEQ QSTESTCD QSTEST \nQSCAT QSSCAT \nQSORRES \nQSORRESU QSSTRESC QSSTRESN QSSTRESU QSLOC QSMETHOD \nQSLOBXFL VISITNUM QSDTC \nQSDY QSEVLINT \n1 \nCDISC01 QS \nCDISC01.100008 1 \nPI0101 \nPI01-Pain \nIntensity \nPI \nFIBROMYALGIA WORST PAIN \nIMAGINABLE \n \n100 \n100 \n \nBACK \nVISUAL ANALOG \nSCALE (100 MM) \nY \n1 \n2003-04-\n15 \n1 \n-PT24H \n2 \nCDISC01 QS \nCDISC01.100008 2 \nPI0101 \nPI01-Pain \nIntensity \nPI \nFIBROMYALGIA 50 \nmm \n50 \n50 \nmm \nBACK \nVISUAL ANALOG \nSCALE (100 MM) \n \n2 \n2003-04-\n21 \n7 \n-PT24H \n3 \nCDISC01 QS \nCDISC01.100008 3 \nPI0101 \nPI01-Pain \nIntensity \nPI \nFIBROMYALGIA 60 \nmm \n60 \n60 \nmm \nBACK \nVISUAL ANALOG \nSCALE (100 MM) \n \n3 \n2003-04-\n28 \n14 \n-PT24H \n4 \nCDISC01 QS \nCDISC01.100014 4 \nPI0101 \nPI01-Pain \nIntensity \nPI \nFIBROMYALGIA WORST PAIN \nIMAGINABLE \n \n100 \n100 \n \nBACK \nVISUAL ANALOG \nSCALE (100 MM) \nY \n1 \n2003-04-\n15 \n1 \n-PT24H \n5 \nCDISC01 QS \nCDISC01.100014 5 \nPI0101 \nPI01-Pain \nIntensity \nPI \nFIBROMYALGIA 50 \nmm \n50 \n50 \nmm \nBACK \nVISUAL ANALOG \nSCALE (100 MM) \n \n2 \n2003-04-\n21 \n7 \n-PT24H \n6 \nCDISC01 QS \nCDISC01.100014 6 \nPI0101 \nPI01-Pain \nIntensity \nPI \nFIBROMYALGIA 60 \nmm \n60 \n60 \nmm \nBACK \nVISUAL ANALOG \nSCALE (100 MM) \n \n3 \n2003-04-\n28 \n14 \n-PT24H \nDataset for Satisfaction of Life Scale \nqssw.xpt \nRow \nSTUDYID \nDOMAIN \nUSUBJID \nQSSEQ \nQSTESTCD \nQSTEST \nQSCAT \nQSORRES \nQSSTRESC \nQSSTRESN \nQSLOBXFL \nVISITNUM \nQSDTC \nQSDY \n1 \nCDISC01 \nQS \nCDISC01.100008 \n1 \nSWLS0101 \nSWLS01-My Life is Close to Ideal \nSWLS \nSlightly agree \n5 \n5 \nY \n1 \n2003-04-15 \n1 \n2 \nCDISC01 \nQS \nCDISC01.100008 \n2 \nSWLS0102 \nSWLS01-My Life Conditions are Excellent \nSWLS \nNeither agree nor disagree \n4 \n4 \nY \n1 \n2003-04-15 \n1 \n3 \nCDISC01 \nQS \nCDISC01.100008 \n3 \nSWLS0103 \nSWLS01-I Am Satisfied with My Life \nSWLS \nAgree \n6 \n6 \nY \n1 \n2003-04-15 \n1 \n4 \nCDISC01 \nQS \nCDISC01.100008 \n4 \nSWLS0104 \nSWLS01-Have Gotten Important Things \nSWLS \nDisagree \n2 \n2 \nY \n1 \n2003-04-15 \n1 \n5 \nCDISC01 \nQS \nCDISC01.100008 \n5 \nSWLS0105 \nSWLS01-Live Life Over Change Nothing \nSWLS \nStrongly disagree \n1 \n1 \nY \n1 \n2003-04-15 \n1 \n6 \nCDISC01 \nQS \nCDISC01.100014 \n6 \nSWLS0101 \nSWLS01-My Life is Close to Ideal \nSWLS \nSlightly agree \n5 \n5 \nY \n1 \n2003-04-15 \n1 \n7 \nCDISC01 \nQS \nCDISC01.100014 \n7 \nSWLS0102 \nSWLS01-My Life Conditions are Excellent \nSWLS \nNeither agree nor disagree \n4 \n4 \nY \n1 \n2003-04-15 \n1 \n8 \nCDISC01 \nQS \nCDISC01.100014 \n8 \nSWLS0103 \nSWLS01-I Am Satisfied with My Life \nSWLS \nAgree \n6 \n6 \nY \n1 \n2003-04-15 \n1 \n9 \nCDISC01 \nQS \nCDISC01.100014 \n9 \nSWLS0104 \nSWLS01-Have Gotten Important Things \nSWLS \nDisagree \n2 \n2 \nY \n1 \n2003-04-15 \n1 \n10 \nCDISC01 \nQS \nCDISC01.100014 \n10 \nSWLS0105 \nSWLS01-Live Life Over Change Nothing \nSWLS \nStrongly disagree \n1 \n1 \nY \n1 \n2003-04-15 \n1 \nSUPPQS Domains \nSupplemental Qualifiers for QSCG \nsuppqscg.xpt \nRow STUDYID RDOMAIN USUBJID \nIDVAR \nIDVARVAL QNAM \nQLABEL \nQVAL \nQORIG QEVAL \n1 \nCDISC01 QS \nCDISC01.100008 QSCAT CGI \nQSLANG Questionnaire Language GERMAN CRF \n \n2 \nCDISC01 QS \nCDISC01.100014 QSCAT CGI \nQSLANG Questionnaire Language FRENCH CRF \n \n"
  },
  {
    "page": 26,
    "text": "CDISC Study Data Tabulation Model Implementation Guide: Human Clinical Trials (3.4 Final) \n© 2021 Clinical Data Interchange Standards Consortium, Inc. All rights reserved  \n Page 26 \n2021-11-29 \nSupplemental Qualifiers for QSPI \nsuppqspi.xpt \nRow STUDYID RDOMAIN USUBJID \nIDVAR \nIDVARVAL QNAM \nQLABEL \nQVAL \nQORIG QEVAL \n1 \nCDISC01 QS \nCDISC01.100008 QSTESTCD PI0101 \nQSANTXLO Anchor Text Low NO PAIN \nCRF \n \n2 \nCDISC01 QS \nCDISC01.100008 QSTESTCD PI0101 \nQSANTXHI \nAnchor Text \nHigh \nWORST PAIN \nIMAGINABLE \nCRF \n \n3 \nCDISC01 QS \nCDISC01.100008 QSTESTCD PI0101 \nQSANVLLO Anchor Value \nLow \n0 \nCRF \n \n4 \nCDISC01 QS \nCDISC01.100008 QSTESTCD PI0101 \nQSANVLHI \nAnchor Value \nHigh \n100 \nCRF \n \n5 \nCDISC01 QS \nCDISC01.100008 QSCAT \nPI \nQSLANG \nQuestionnaire \nLanguage \nGERMAN \nCRF \n \n6 \nCDISC01 QS \nCDISC01.100014 QSTESTCD PI0101 \nQSANTXLO Anchor Text Low NO PAIN \nCRF \n \n7 \nCDISC01 QS \nCDISC01.100014 QSTESTCD PI0101 \nQSANTXHI \nAnchor Text \nHigh \nWORST PAIN \nIMAGINABLE \nCRF \n \n8 \nCDISC01 QS \nCDISC01.100014 QSTESTCD PI0101 \nQSANVLLO Anchor Value \nLow \n0 \nCRF \n \n9 \nCDISC01 QS \nCDISC01.100014 QSTESTCD PI0101 \nQSANVLHI \nAnchor Value \nHigh \n100 \nCRF \n \n10 \nCDISC01 QS \nCDISC01.100014 QSCAT \nPI \nQSLANG \nQuestionnaire \nLanguage \nFRENCH \nCRF \n \nSupplemental Qualifiers for QSSW \nsuppqssw.xpt \nRow STUDYID \nRDOMAIN \nUSUBJID \nIDVAR \nIDVARVAL \nQNAM \nQLABEL \nQVAL \nQORIG \nQEVAL \n1 \nCDISC01 \nQS \nCDISC01.100008 \nQSCAT \nSWLS \nQSLANG \nQuestionnaire Language \nGERMAN \nCRF \n \n2 \nCDISC01 \nQS \nCDISC01.100014 \nQSCAT \nSWLS \nQSLANG \nQuestionnaire Language \nFRENCH \nCRF \n \n4.1.8 Origin Metadata \n4.1.8.1 Origin Metadata for Variables \nThe origin element in the Define-XML document file is used to indicate where the data originated. Its purpose is to \nunambiguously communicate to the reviewer the origin of the data source. For example, data could be collected (on \nthe CRF, from a vendor, or from a device), derived, or assigned; CRF data should be traceable to an annotated CRF \nand derived data should be traceable to some derivation algorithm. The Define-XML specification is the definitive \nsource of allowable origin values. Additional guidance and supporting examples can be referenced using the \nMetadata Submission Guidelines (MSG) for SDTMIG. \n4.1.8.2 Origin Metadata for Records \nSponsors are cautioned to recognize that a derived origin means that all values for that variable were derived, and \nthat collected on the CRF applies to all values as well. In some cases, both collected and derived values may be \nreported in the same field. For example, some records in a Findings dataset such as Questionnaires (QS) contain \nvalues collected from the CRF; other records may contain derived values, such as a total score. When both derived \nand collected values are reported in a variable, the origin is to be described using value-level metadata in the Define-\nXML document. \n4.1.9 Assigning Natural Keys in the Metadata \nSection 3.2, Using the CDISC Domain Models in Regulatory Submissions – Dataset Metadata, indicates that a \nsponsor should include in the metadata the variables that contribute to the natural key for a domain. In a case where \na dataset includes a mix of records with different natural keys, the natural key that provides the most granularity is \nthe one that should be provided. The following example illustrates how to do this, and include a case where a \nSupplemental Qualifier variable is referenced because it forms part of the natural key. \nMusculoskeletal System Findings (MK) Domain Example \nSponsor A chooses the following natural key for the MK domain: \nSTUDYID, USUBJID, VISTNUM, MKTESTCD \nSponsor B collects data in such a way that the location (MKLOC and MKLAT) and method (MKMETHOD) \nvariables need to be included in the natural key to identify a unique row. Sponsor B then defines the following \nnatural key for the MK domain. \n"
  },
  {
    "page": 27,
    "text": "CDISC Study Data Tabulation Model Implementation Guide: Human Clinical Trials (3.4 Final) \n© 2021 Clinical Data Interchange Standards Consortium, Inc. All rights reserved  \n Page 27 \n2021-11-29 \nSTUDYID, USUBJID, VISITNUM, MKTESTCD, MKLOC, MKLAT, MKMETHOD \nIn certain instances a Supplemental Qualifier variable (i.e., a QNAM value; see Section 8.4, Relating Non-standard \nVariable Values to a Parent Domain) might also contribute to the natural key of a record, and therefore needs to be \nreferenced as part of the natural key for a domain. The important concept here is that a domain is not limited by \nphysical structure. A domain may comprise more than 1 physical dataset (e.g., the main domain dataset and its \nassociated Supplemental Qualifiers dataset). Supplemental Qualifier variables should be referenced in the natural \nkey by using a 2-part name. The word QNAM must be used as the first part of the name to indicate that the \ncontributing variable exists in a domain-specific SUPP--; the second part is the value of QNAM that ultimately \nbecomes a column reference when the SUPPQUAL records are joined on to the main domain dataset (e.g., \nQNAM.XVAR when the SUPP-- record has a QNAM of \"XVAR\") . \nIn this example, sponsor B might have collected data that used different imaging methods, using imaging devices \nwith different makes and models, and using different hand positions. The sponsor considers the make and model \ninformation and hand position to be essential data that contributes to the uniqueness of the test result, and so \nincludes a device identifier (SPDEVID) in the data and creates a Supplemental Qualifier variable for hand position \n(QNAM = \"MKHNDPOS\"). The natural key is then defined as follows: \nSTUDYID, USUBJID, SPDEVID, VISITNUM, MKTESTCD, MKLOC, MKLAT, MKMETHOD, \nQNAM.MKHNDPOS \nwhere the notation \"QNAM.MKHNDPOS\" means the Supplemental Qualifier whose QNAM \nis \"MKHNDPOS\".This approach becomes very useful in a Findings domain when --TESTCD values are \"generic\" \nand rely on other variables to completely describe the test. The use of generic test codes helps to create distinct lists \nof manageable controlled terminology for --TESTCD. In studies where multiple repetitive tests or measurements are \nbeing made, for example in a rheumatoid arthritis study where repetitive measurements of bone erosion in the hands \nand wrists might be made using both X-ray and MRI equipment, the generic MKTEST \"Sharp/Genant Bone Erosion \nScore\" would be used in combination with other variables to fully identify the result. \nTaking just the phalanges, a sponsor might want to express the following in a test in order to make it unique: \n• \nLeft or right hand \n• \nPhalangeal joint position (which finger, which joint) \n• \nRotation of the hand \n• \nMethod of measurement (x-ray or MRI) \n• \nMachine make and model \nWhen CDISC Controlled Terminology for a test is not available, and a sponsor creates --TEST and --TESTCD \nvalues, trying to encapsulate all information about a test within a unique value of a --TESTCD is not a \nrecommended approach for the following reasons: \n• \nIt results in the creation of a potentially large number of test codes. \n• \nThe 8-character values of --TESTCD become less intuitively meaningful. \n• \nMultiple test codes are essentially representing the same test or measurement simply to accommodate \nattributes of a test within the --TESTCD value itself (e.g., to represent a body location at which a \nmeasurement was taken). \nAs a result, the preferred approach would be to use a generic (or simple) test code that requires associated qualifier \nvariables to fully express the test detail. This approach was used in creating the CDISC Controlled Terminology \nused in this example: \nThe MKTESTCD value \"SGBESCR\" is a generic test code, and additional information about the test is provided by \nseparate qualifier variables. The variables that completely specify a test may include domain variables and \nsupplemental qualifier variables. Expressing the natural key becomes very important in this situation in order to \ncommunicate the variables that contribute to the uniqueness of a test. \nThe following variables would be used to fully describe the test. The natural key for this domain includes \nboth parent dataset variables and a supplemental qualifier variable that contribute to the natural key of each row and \nto describe the uniqueness of the test. \n"
  },
  {
    "page": 28,
    "text": "CDISC Study Data Tabulation Model Implementation Guide: Human Clinical Trials (3.4 Final) \n© 2021 Clinical Data Interchange Standards Consortium, Inc. All rights reserved \n Page 28 \n2021-11-29 \nSPDEVID \nMKTESTCD MKTEST \nMKLOC \nMKLAT MKMETHOD QNAM.MKHNDPOS \nACME3000 SGBESCR \nSharp/Genant Bone Erosion \nScore \nMETACARPOPHALANGEAL JOINT \n1 \nLEFT \nX-RAY\nPALM UP \n4.2 General Variable Assumptions \n4.2.1 Variable-naming Conventions \nSDTM variables are named according to a set of conventions, using fragment names (see Appendix D, CDISC \nVariable-naming Fragments). Variables with names ending in \"CD\" are \"short\" versions of associated variables that \ndo not include the \"CD\" suffix (e.g., --TESTCD is the short version of --TEST). \nValues of --TESTCD must be limited to 8 characters and cannot start with a number, nor can they contain characters \nother than letters, numbers, or underscores. This is to avoid possible incompatibility with SAS v5 transport files. \nThis limitation will be in effect until the use of other formats (e.g., Dataset-XML) becomes acceptable to regulatory \nauthorities. \nBecause QNAM serves the same purpose as --TESTCD within supplemental qualifier datasets, values of QNAM are \nsubject to the same restrictions as values of --TESTCD. \nValues of other \"CD\" variables are not subject to the same restrictions as --TESTCD: \n•\nETCD (the companion to ELEMENT) and TSPARMCD (the companion to TSPARM) are limited to 8\ncharacters and do not have the character restrictions that apply to --TESTCD. These values should be short\nfor ease of use in programming, but it is not expected that they will need to serve as variable names.\n•\nARMCD is limited to 20 characters and does not have the character restrictions that apply to --TESTCD.\nThe maximum length of ARMCD is longer than for other \"short\" variables to accommodate the kind of\nvalues that are likely to be needed for crossover trials. For example, if ARMCD values for a 7-period\ncrossover were constructed using 2-character abbreviations for each treatment and separating hyphens, the\nlength of ARMCD values would be 20. This same rule applies to the ACTARMCD variable.\nVariable descriptive names (labels), up to 40 characters, should be provided as data variable labels for all variables, \nincluding Supplemental Qualifier variables. \nUse of variable names (other than domain prefixes), formats, decodes, terminology, and data types for the same type \nof data (even for custom domains and Supplemental Qualifiers) should be consistent within and across studies \nwithin a submission. \n4.2.2 Two-character Domain Identifier \nIn order to minimize the risk of difficulty when merging/joining domains for reporting purposes, the 2-character \ndomain identifier is used as a prefix in most variable names. \nVariables in domain specification tables (see Section 5, Models for Special-purpose Domains; Section 6, Domain \nModels Based on the General Observation Classes; Section 7, Trial Design Model Datasets; Section 8, Representing \nRelationships and Data; and Section 9, Study References) already specify the complete variable names. When \nadding variables from the SDTM to standard domains or creating custom domains based on the general observation \nclasses, sponsors must replace the \"--\" prefix in the SDTM tables of General Observation Class, Timing, and \nIdentifier variables with the 2-character domain identifier (DOMAIN) value for that domain/dataset. The 2-character \ndomain code is limited to A-Z for the first character, and A-Z, 0-9 for the second character. No other characters are \nallowed. This is for compatibility with SAS v5 transport files and with file naming requirements as part of the \nElectronic Common Technical Document (eCTD). \nThe following variables are exceptions to the philosophy that all variable names are prefixed with the domain \nidentifier: \n•\nRequired Identifiers (STUDYID, DOMAIN, USUBJID)\n•\nCommonly used grouping and merge keys (e.g., VISIT, VISITNUM, VISITDY)\n•\nAll Demographics (DM) domain variables other than DMDTC and DMDY\n"
  },
  {
    "page": 29,
    "text": "CDISC Study Data Tabulation Model Implementation Guide: Human Clinical Trials (3.4 Final) \n© 2021 Clinical Data Interchange Standards Consortium, Inc. All rights reserved  \n Page 29 \n2021-11-29 \n• \nAll variables in RELREC and SUPPQUAL, and some variables in the Comments and Trial Design datasets \nRequired identifiers are not prefixed because they are usually used as keys when merging/joining observations. The \n--SEQ and the optional Identifiers --GRPID and --REFID are prefixed because they may be used as keys when \nrelating observations across domains. \n4.2.3 Use of \"Subject\" and USUBJID \n\"Subject\" is used to generically refer to both patients and healthy volunteers in order to be consistent with the \nrecommendation in FDA guidance. The term \"subject\" should be used consistently in all labels and Define-XML \ndocument comments. To identify a subject uniquely across all studies for all applications or submissions involving \nthe product, a unique identifier (USUBJID) should be assigned and included in all datasets. \nThe unique subject identifier (USUBJID) is required in all datasets containing subject-level data. USUBJID values \nmust be unique for each trial participant (subject) across all trials in the submission. This means that no 2 or more \nsubjects, across all trials in the submission, may have the same USUBJID. In addition, the same person who \nparticipates in multiple clinical trials (when this is known) must be assigned the same USUBJID value in all trials. \nCDISC does not recommend any specific format for the values of USUBJID, only that the values need to be unique \nfor all subjects in the submission, and across multiple submissions for the same compound. Many sponsors \nconcatenate values for the study, site, and subject into USUBJID, but this is not a requirement. It is acceptable to use \nany format for USUBJID, as long as the values are unique across all subjects. \nThe following dm.xpt sample rows illustrate a single subject who participates in 2 studies, first in ACME01 and \nlater in ACME14. Note that this is only one example of the possible values for USUBJID.  \ndm.xpt \nRow \nSTUDYID \nDOMAIN \nUSUBJID \nSUBJID \nSITEID \nINVNAM \n1 \nACME01 \nDM \nACME01-05-001 \n001 \n05 \nJohn Doe \n \ndm.xpt \nRow \nSTUDYID \nDOMAIN \nUSUBJID \nSUBJID \nSITEID \nINVNAM \n1 \nACME14 \nDM \nACME01-05-001 \n017 \n14 \nMary Smith \n \n4.2.4 Text Case in Submitted Data \nIt is recommended that text data be submitted in text that is all upper case (e.g., NEGATIVE). Exceptions may \ninclude long text data (e.g., comment text) and values of --TEST in Findings datasets (which may be more readable \nin title case if used as labels in transposed views). Values from CDISC Controlled Terminology or external code \nsystems (e.g., MedDRA, SNOMED) or response values for QRS instruments specified by the instrument \ndocumentation should be in the case specified by those sources, which may be mixed case. The case used in the text \ndata must match the case used in the controlled terminology provided in the Define-XML document. \n4.2.5 Convention for Missing Values \nMissing values for individual data items should be represented by nulls. Conventions for representing observations \nnot done, using the SDTM --STAT and --REASND variables, are addressed in Section 4.5.1.2, Tests Not Done, and \nthe individual domain models. \n4.2.6 Grouping Variables and Categorization \nGrouping variables are Identifiers and Qualifiers variables—such as the --CAT (Category) and --SCAT \n(Subcategory)—that group records in the SDTM domains/datasets and can be assigned by sponsors to categorize \ntopic-variable values. For example, a lab record with LBTEST = \"SODIUM\" might have LBCAT = \"CHEMISTRY\" \nand LBSCAT = \"ELECTROLYTES\". Values for --CAT and --SCAT should not be redundant with the domain \nname or dictionary classification provided by --DECOD and --BODSYS. \n \n \n"
  },
  {
    "page": 30,
    "text": "CDISC Study Data Tabulation Model Implementation Guide: Human Clinical Trials (3.4 Final) \n© 2021 Clinical Data Interchange Standards Consortium, Inc. All rights reserved  \n Page 30 \n2021-11-29 \nHierarchy of Grouping Variables \nSTUDYID \nDOMAIN \n--CAT \n--SCAT \n \n   USUBJID \n \n \n--GRPID \n \n \n--LNKID \n \n \n--LNKGRP \nHow Grouping Variables Group Data \nFor the subject \n1. All records with the same USUBJID value are a group of records that describe that subject. \nAcross subjects (records with different USUBJID values) \n1. All records with the same STUDYID value are a group of records that describe that study. \n2. All records with the same DOMAIN value are a group of records that describe that domain. \n3. --CAT (Category) and --SCAT (Sub-category) values further subset groups within the domain. Generally, -\n-CAT/--SCAT values have meaning within a particular domain. However, it is possible to use the same \nvalues for --CAT/--SCAT in related domains (e.g., MH and AE). When values are used across domains, the \nmeanings should be the same. Examples of where --CAT/--SCAT may have meaning across \ndomains/datasets include: \na. \nCases where different domains in the same general observation class contain similar conceptual \ninformation. Adverse Events (AE), Medical History (MH), and Clinical Events (CE), for example, are \nconceptually the same data, the only differences being when the event started relative to the study start \nand whether the event is considered a regulatory-reportable adverse event in the study. Neurotoxicities \ncollected in oncology trials both as separate Medical History CRFs (MH domain) and Adverse Event \nCRFs (AE domain) could both identify/collect \"Paresthesia of the left arm\". In both domains, the --\nCAT variable could have the value of \"NEUROTOXICITY\". \nb. Cases where multiple datasets are necessary to capture data about the same topic. Following the \noncology example, the existence and start and stop date of paresthesia of the left arm may be reported \nas an adverse event (AE domain), whereas the severity of the event is captured at multiple visits and \nrecorded as Findings About (FA dataset). In both cases the --CAT variable could have a value of \n\"NEUROTOXICITY\". \nc. \nCases where multiple domains are necessary to capture data that were collected together and have an \nimplicit relationship, perhaps identified in the Related Records (RELREC) special-purpose dataset.  \nStress-test data collection may capture the following: \ni. Information about the occurrence, start, stop, and duration of the test (in the Procedures (PR) \ndomain) \nii. Vital Signs recorded during the stress test (VS domain) \niii. Treatments (e.g., oxygen) administered during the stress test (in an Interventions domain) \nIn such cases, the data collected during the stress tests recorded in 3 separate domains may all have  \n--CAT/--SCAT values (STRESS TEST) that identify that data were collected during the stress test. \nWithin subjects (records with the same USUBJID values) \n1. --GRPID values further group (subset) records within USUBJID. All records in the same domain with the \nsame --GRPID value are a group of records within USUBJID. Unlike --CAT and --SCAT, --GRPID values \nare not intended to have any meaning across subjects and are usually assigned during or after data \ncollection. \n"
  },
  {
    "page": 31,
    "text": "CDISC Study Data Tabulation Model Implementation Guide: Human Clinical Trials (3.4 Final) \n© 2021 Clinical Data Interchange Standards Consortium, Inc. All rights reserved  \n Page 31 \n2021-11-29 \nAlthough --SPID and --REFID are Identifier variables, they may sometimes be used as grouping variables and may \nalso have meaning across domains. \n--LNKID and --LNKGRP express values that are used to link records in separate domains. As such, these variables \nare often used in IDVAR in a RELREC relationship when there is a dataset-to-dataset relationship. \n1. --LNKID is a grouping identifier used to identify a record in one domain that is related to records in \nanother domain, often forming a one-to-many relationship.  \n2. --LNKGRP is a grouping identifier used to identify a group of records in one domain that is related to a \nrecord in another domain, often forming a many-to-one relationship. \nDifferences Between Grouping Variables \nThe primary distinctions between --CAT/--SCAT and --GRPID are: \n1. --CAT/--SCAT are known (identified) about the data before it is collected. \n2. --CAT/--SCAT values group data across subjects. \n3. --CAT/--SCAT may have some controlled terminology. \n4. --GRPID is usually assigned during or after data collection at the discretion of the sponsor. \n5. --GRPID groups data only within a subject. \n6. --GRPID values are sponsor-defined, and will not be subject to controlled terminology. \nTherefore, data that would be the same across subjects is usually more appropriate in --CAT/--SCAT, and data that \nwould vary across subjects is usually more appropriate in --GRPID. For example, a concomitant medication \nadministered as part of a known combination therapy for all subjects (e.g., \"Mayo Clinic Regimen\") would more \nappropriately use --CAT/--SCAT to identify the medication as part of that regimen. Groups of medications recorded \non a Serious Adverse Event (SAE) form as treatments for the SAE would more appropriately use --GRPID because \ngroupings are likely to differ across subjects. \nIn domains based on the Findings general observation class, the --RESCAT variable can be used to categorize \nresults after the fact. --CAT and --SCAT by contrast, are generally defined by the sponsor or used by the investigator \nat the point of collection, not after assessing the value of Findings results. \n4.2.7 Submitting Free Text from the CRF \nSponsors often collect free-text data on a CRF to supplement a standard field. This often occurs as part of a list of \nchoices accompanied by \"Other, specify.\" The manner in which these data are submitted will vary based on their \nrole. \n4.2.7.1 \"Specify\" Values for Non-result Qualifier Variables \nWhen free-text information is collected to supplement a standard non-result qualifier field, the free-text value should \nbe placed in the SUPP-- dataset described in Section 8.4, Relating Non-standard Variable Values to a Parent \nDomain. When applicable, controlled terminology should be used for SUPP-- field names (QNAM) and their \nassociated labels (QLABEL; see Section 8.4, Relating Non-standard Variable Values to a Parent Domain, and \nAppendix C1, Supplemental Qualifiers Name Codes). \nFor example, when a description of \"Other Medically Important Serious Adverse Event\" category is collected on a \nCRF, the free-text description should be stored in the SUPPAE dataset. \n• \nAESMIE = \"Y\" \n• \nSUPPAE QNAM = \"AESOSP\", QLABEL = \"Other Medically Important SAE\", QVAL = \"HIGH RISK \nFOR ADDITIONAL THROMBOSIS\" \n \n \n"
  },
  {
    "page": 32,
    "text": "CDISC Study Data Tabulation Model Implementation Guide: Human Clinical Trials (3.4 Final) \n© 2021 Clinical Data Interchange Standards Consortium, Inc. All rights reserved  \n Page 32 \n2021-11-29 \nAnother example is a CRF that collects reason for dose adjustment with additional free-text description: \nReason for Dose Adjustment (EXADJ) Describe \n \nAdverse Event \n \n \nInsufficient Response \n \n \nNon-medical Reason \n \nThe free-text description should be stored in the SUPPEX dataset. \n• \nEXADJ = \"NONMEDICAL REASON\" \n• \nSUPPEX QNAM = \"EXADJDSC\", QLABEL = \"Reason For Dose Adjustment Description\", QVAL = \n\"PATIENT MISUNDERSTOOD INSTRUCTIONS\" \nNote that QNAM references the \"parent\" variable name with the addition of \"DSC\". Likewise, the label \nis a modification of the parent variable label. \nWhen the CRF includes a list of values for a qualifier field that includes \"Other\" and the \"Other\" is supplemented \nwith a \"Specify\" free-text field, then the manner in which the free-text \"Specify\" value is submitted will vary based \non the sponsor's coding practice and analysis requirements. \nFor example, consider a CRF that collects the indication for an analgesic concomitant medication (CMINDC) using \na list of prespecified values and an \"Other, specify\" field : \nIndication for analgesic \no Post-operative pain \no Headache \no Menstrual pain \no Myalgia \no Toothache \no Other, \nspecify:  ________________ \nAn investigator has selected \"OTHER\" and specified \"Broken arm\". Several options are available for submission of \nthis data: \n1. If the sponsor wishes to maintain controlled terminology for the CMINDC field and limit the terminology \nto the 5 prespecified choices, then the free text is placed in SUPPCM. \nCMINDC \nOTHER \n \nQNAM \nQLABEL \nQVAL \nCMINDOTH \nOther Indication \nBROKEN ARM \n2. If the sponsor wishes to maintain controlled terminology for CMINDC but will expand the terminology \nbased on values seen in the \"Other, specify\" field, then the value of CMINDC will reflect the sponsor's \ncoding decision and SUPPCM could be used to store the verbatim text. \nCMINDC \nFRACTURE \n \nQNAM \nQLABEL \nQVAL \nCMINDOTH \nOther Indication \nBROKEN ARM \nNote that the sponsor might choose a different value for CMINDC (e.g., \"BONE FRACTURE\") depending \non the sponsor's coding practice and analysis requirements. \n3. If the sponsor does not require that controlled terminology be maintained and wishes for all responses to be \nstored in a single variable, then CMINDC will be used and SUPPCM is not required. \nCMINDC \nBROKEN ARM \n"
  },
  {
    "page": 33,
    "text": "CDISC Study Data Tabulation Model Implementation Guide: Human Clinical Trials (3.4 Final) \n© 2021 Clinical Data Interchange Standards Consortium, Inc. All rights reserved  \n Page 33 \n2021-11-29 \n4.2.7.2 \"Specify\" Values for Result Qualifier Variables \nWhen the CRF includes a list of values for a result field that includes \"Other\" and the \"Other\" is supplemented with \na \"Specify\" free-text field, then the manner in which the free-text \"Specify\" value is submitted will vary based on the \nsponsor's coding practice and analysis requirements. \nFor example, consider a CRF where the sponsor requests the subject's eye color: \nEye Color \no Brown \no Black \no Blue \no Green \no Other, specify:  ________________ \nAn investigator has selected \"OTHER\" and specified \"BLUEISH GRAY\". As in the preceding discussion for non-\nresult qualifier values, the sponsor has several options for submission: \n1. If the sponsor wishes to maintain controlled terminology in the standard result field and limit the \nterminology to the 5 prespecified choices, then the free text is placed in --ORRES and the controlled \nterminology in --STRESC. \nSCTEST \nSCORRES \nSCSTRESC \nEye Color \nBLUEISH GRAY \nOTHER \n2. If the sponsor wishes to maintain controlled terminology in the standard result field, but will expand the \nterminology based on values seen in the \"Other, specify\" field, then the free text is placed in --ORRES and \nthe value of --STRESC will reflect the sponsor's coding decision. \nSCTEST \nSCORRES \nSCSTRESC \nEye Color \nBLUEISH GRAY \nGRAY \n3. If the sponsor does not require that controlled terminology be maintained, the verbatim value will be copied \nto --STRESC. \nSCTEST \nSCORRES \nSCSTRESC \nEye Color \nBLUEISH GRAY \nBLUEISH GRAY \n4.2.7.3 \"Specify\" Values for Topic Variables \nInterventions \nIf a list of specific treatments is provided along with \"Other, Specify\", --TRT should be populated with the name of \nthe treatment found in the specified text. If the sponsor wishes to distinguish between the prespecified list of \ntreatments and those recorded in \"Other, Specify,\" the --PRESP variable could be used. For example: \nIndicate which of the following \nconcomitant medications \nwas used to treat the subject’s \nheadaches: \no Acetaminophen \no Aspirin \no Ibuprofen \no Naproxen \no Other, \nspecify:  ________________ \nIf ibuprofen and diclofenac were reported, the CM dataset would include the following: \nCMTRT \nCMPRESP \nIBUPROFEN \nY \nDICLOFENAC  \nEvents \n\"Other, Specify\" for events may be handled similarly to Interventions. --TERM should be populated with the \ndescription of the event found in the specified text and --PRESP could be used to distinguish between prespecified \nand free-text responses. \n \n \n"
  },
  {
    "page": 34,
    "text": "CDISC Study Data Tabulation Model Implementation Guide: Human Clinical Trials (3.4 Final) \n© 2021 Clinical Data Interchange Standards Consortium, Inc. All rights reserved \n Page 34 \n2021-11-29 \nFindings \n\"Other, Specify\" for tests may be handled similarly to Interventions. --TESTCD and --TEST should be populated \nwith the code and description of the test found in the specified text. If specific tests are not listed on the CRF and the \ninvestigator has the option of writing in tests, then the name of the test would have to be coded to ensure that all --\nTESTCD and --TEST values are consistent with the test controlled terminology.For example, a lab CRF collected \nvalues for hemoglobin, hematocrit, and \"Other, specify\". The value the investigator wrote for \"Other, specify\" was \n\"Prothrombin time\" with an associated result and units. The sponsor would submit the controlled terminology for \nthis test:  LBTESTCD would be \"PT\" and LBTEST would be \"Prothrombin Time\", rather than the verbatim term, \n\"Prothrombin time\" supplied by the investigator. \n4.2.7.4 \"Specify\" Values for --OBJ \nAs illustrated in the following figure, when findings are collected about an event or intervention, and the name of the \nevent or intervention is collected in an \"Other, specify\" CRF field, the value in --OBJ variable depends on whether \nthe Findings record has a parent record and whether the \"Other, specify\" value was coded. See also Section 6.4.3, \nVariables Unique to Findings About. \nFigure. Decision Tree for Populating --OBJ \n4.2.8 Multiple Values for a Variable \n4.2.8.1 Multiple Values for an Intervention or Event Topic Variable \nIf multiple values are reported for an intervention or event topic variable (e.g., --TRT in an Interventions general \nobservation-class dataset or --TERM in an Events general observation-class dataset), it is expected that the sponsor \nwill split the values into multiple records or otherwise resolve the multiplicity per the sponsor's data management \nstandard operating procedures. For example, if an adverse event term of \"Headache and nausea\" or a concomitant \nmedication of \"Tylenol and Benadryl\" is reported, sponsors will often split the original report into separate records \nand/or query the site for clarification. By the time of submission, datasets should be in conformance with the record \nstructures described in the SDTMIG. \nNote: The Disposition (DS) dataset is an exception to the general rule of splitting multiple topic values into separate \nrecords. For DS, 1 record for each disposition or protocol milestone is permitted according to the domain structure. \nFor cases of multiple reasons for discontinuation see Section 6.2.4, Disposition, assumption 5 for additional \ninformation. \n4.2.8.2 Multiple Values for a Findings Result Variable \nIf multiple result values (--ORRES) are reported for a test in a Findings class dataset, multiple records should be \nsubmitted for that --TESTCD. \n"
  },
  {
    "page": 35,
    "text": "CDISC Study Data Tabulation Model Implementation Guide: Human Clinical Trials (3.4 Final) \n© 2021 Clinical Data Interchange Standards Consortium, Inc. All rights reserved  \n Page 35 \n2021-11-29 \nFor example, \n• \nEGTESTCD = \"SPRTARRY\", EGTEST = \"Supraventricular Tachyarrhythmias\", EGORRES = \"ATRIAL \nFIBRILLATION\" \n• \nEGTESTCD = \"SPRTARRY\", EGTEST = \"Supraventricular Tachyarrhythmias\", EGORRES = \"ATRIAL \nFLUTTER\" \nWhen a finding can have multiple results, the key structure for the findings dataset must be adequate to distinguish \nbetween the multiple results. See Section 4.1.9, Assigning Natural Keys in the Metadata. \n4.2.8.3 Multiple Values for a Non-result Qualifier Variable \nThe SDTM permits 1 value for each qualifier variable per record. If multiple values exist (e.g., due to a \"Check all \nthat apply\" instruction on a CRF), then the value for the qualifier variable should be \"MULTIPLE\" and SUPP-- \nshould be used to store the individual responses. It is recommended that the SUPP-- QNAM value reference the \ncorresponding standard domain variable with an appended number or letter. In some cases, the standard variable \nname will be shortened to meet the 8-character variable name requirement, or it may be clearer to append a \nmeaningful character string as shown in the second Adverse Events (AE) example below, where the first 3 \ncharacters of the drug name are appended. Likewise, the QLABEL value should be similar to the standard label. The \nvalues stored in QVAL should be consistent with the controlled terminology associated with the standard variable. \nSee Section 8.4, Relating Non-standard Variable Values to a Parent Domain, for additional guidance on maintaining \nappropriately unique QNAM values. \nThe following example includes selected variables from the ae.xpt and suppae.xpt datasets for a rash with locations \non the face, neck, and chest. \nae.xpt \nAETERM \nAELOC \nRASH \nMULTIPLE \nsuppae.xpt \nQNAM \nQLABEL \nQVAL \nAELOC1 \nLocation of the Reaction 1 \nFACE \nAELOC2 \nLocation of the Reaction 2 \nNECK \nAELOC3 \nLocation of the Reaction 3 \nCHEST \nIn some cases, values for QNAM and QLABEL more specific than these may be needed. \nFor example, a sponsor might conduct a study with 2 study drugs (e.g., open-label study of Abcicin + Xyzamin), and \nmay require the investigator assess causality and describe action taken for each drug for the rash: \nae.xpt \nAETERM \nAEREL \nAEACN \nRASH \nMULTIPLE \nMULTIPLE \nsuppae.xpt \nQNAM \nQLABEL \nQVAL \nAERELABC \nCausality of Abcicin \nPOSSIBLY RELATED \nAERELXYZ \nCausality of Xyzamin \nUNLIKELY RELATED \nAEACNABC \nAction Taken with Abcicin \nDOSE REDUCED \nAEACNXYZ \nAction Taken with Xyzamin \nDOSE NOT CHANGED \nIn each of these examples, the use of SUPPAE should be documented in the Define-XML document and the \nannotated CRF. The controlled terminology used should be documented as part of value-level metadata. \nIf the sponsor has clearly documented that one response is of primary interest (e.g., in the CRF, protocol, or analysis \nplan), the standard domain variable may be populated with the primary response and SUPP-- may be used to store \nthe secondary response(s). \nFor example, if Abcicin is designated as the primary study drug in the example above: \nae.xpt \nAETERM \nAEREL \nAEACN \nRASH \nPOSSIBLY RELATED \nDOSE REDUCED \n \n \n \n"
  },
  {
    "page": 36,
    "text": "CDISC Study Data Tabulation Model Implementation Guide: Human Clinical Trials (3.4 Final) \n© 2021 Clinical Data Interchange Standards Consortium, Inc. All rights reserved  \n Page 36 \n2021-11-29 \nsuppae.xpt \nQNAM \nQLABEL \nQVAL \nAERELX \nCausality of Xyzamin \nUNLIKELY RELATED \nAEACNX \nAction Taken with Xyzamin \nDOSE NOT CHANGED \nNote that in the latter case, the label for standard variables AEREL and AEACN will have no indication that they \npertain to Abcicin. This association must be clearly documented in the metadata and annotated CRF. \n4.2.8.4 Multiple Values for a Parameter \nIf multiple values (--VAL) are reported for a parameter in a Trial Design or Study Reference dataset (e.g., TS, OI), \nmultiple records should be submitted for that --PARMCD. \nFor example, \n• \nTSPARMCD = \"TTYPE\", TSPARM = \"Trial Type\", TSVAL = \"EFFICACY\" \n• \nTSPARMCD = \"TTYPE\", TSPARM = \"Trial Type\", TSVAL = \"SAFETY\" \nWhen a parameter can have multiple values, the key structure for the dataset must be adequate to distinguish \nbetween the multiple records. See Section 4.1.9, Assigning Natural Keys in the Metadata. \n4.2.9 Variable Lengths \nWhen variable length is referenced in the SDTMIG, this refers to the length in bytes of ASCII character strings. \nVery large transport files have become an issue for certain regulatory authorities (e.g., US FDA) to process. One of \nthe main contributors to large file sizes has been sponsors using the maximum length of 200 for character variables. \nTo help rectify this situation: \n• \nThe maximum SAS v5 transport file character variable length of 200 characters should not be used unless \nnecessary. \n• \nSponsors should consider the nature of the data and apply reasonable, appropriate lengths to variables. For \nexample: \no \nThe length of flags will always be 1. \no \n--TESTCD and IDVAR will never be more than 8, so the length can always be set to 8. \no \nThe length for variables that use controlled terminology can be set to the length of the longest term. \n4.3 Coding and Controlled Terminology Assumptions \nExamples provided in the CDISC Notes column and domain examples are only examples and not intended to \nimply controlled terminology. For current CDISC Controlled Terminology, \nvisit https://datascience.cancer.gov/resources/cancer-vocabulary/cdisc-terminology. \n4.3.1 Controlled Terms, Codelist or Format Column \nAs of SDTMIG v3.3, controlled terminology is represented in the following ways: \n• \nA single asterisk (*) when CDISC Controlled Terminology is not currently available but the SDS Team \nexpects that sponsors may have their own controlled terminology and/or the CDISC Controlled \nTerminology Team may develop controlled terminology in the future \n• \nThe single applicable value for the variable DOMAIN (e.g., \"PR\") \n• \nThe name of a CDISC codelist, represented as a hyperlink in parentheses (e.g., \"(NY)\") \n• \nA short reference to an external terminology (e.g., \"MedDRA\", \"ISO 3166-1 alpha-3\") \nIn addition, the Controlled Terms, Codelist or Format column has been used to indicate variables that use an ISO \n8601 format. \n"
  },
  {
    "page": 37,
    "text": "CDISC Study Data Tabulation Model Implementation Guide: Human Clinical Trials (3.4 Final) \n© 2021 Clinical Data Interchange Standards Consortium, Inc. All rights reserved  \n Page 37 \n2021-11-29 \n4.3.2 Controlled Terminology Text Case \nTerms from controlled terminology should be in the case that appears the source codelist or code system (e.g., \nCDISC codelist or external code system such as MedDRA). See Section 4.2.4, Text Case in Submitted Data. \n4.3.3 Controlled Terminology Values \nThe controlled terminology or a reference to the controlled terminology should be included in the Define-XML \ndocument file wherever applicable. All values in the permissible value set for the study should be included, whether \nor not they are represented in the submitted data. Note that a null value should not be included in the permissible \nvalue set. A null value is implied for any list of controlled terms unless the variable is \"Required\" (see Section 4.1.5, \nSDTM Core Designations). \nWhen a domain or dataset specification includes a codelist for a variable, not every value in that codelist may have \nbeen part of planned data collection; only values that were part of planned data collection should be included in the \nDefine-XML document. For example, --PRESP variables are associated with the NY codelist, but only the value \n\"Y\" is allowed in --PRESP variables. Future versions of the Define-XML specification are expected to include \ninformation on representing subsets of controlled terminology. \n4.3.4 Use of Controlled Terminology and Arbitrary Number Codes \nControlled terminology or human-readable text should be used instead of arbitrary number codes in order to reduce \nambiguity for submission reviewers. For example, CMDECOD would contain human-readable dictionary text rather \nthan a numeric code. Numeric code values may be submitted as Supplemental Qualifiers if necessary. \n4.3.5 Storing Controlled Terminology for Synonym Qualifier Variables \n• \nFor events such as adverse events and medical history, populate --DECOD with the dictionary's preferred \nterm and populate --BODSYS with the preferred body system name. If a dictionary is multi-axial, the value \nin --BODSYS should represent the system organ class (SOC) used for the sponsor's analysis and summary \ntables, which may not necessarily be the primary SOC. Populate --SOC with the dictionary-derived primary \nSOC. In cases where the primary SOC was used for analysis, --BODSYS and --SOC are the same. \n• \nIf MedDRA is used to code events, the intermediate levels in the MedDRA hierarchy should also be \nrepresented in the dataset. A pair of variables has been defined for each of the levels of the hierarchy other \nthan SOC and Preferred Term (PT): one to represent the text description and the other to represent the code \nvalue associated with it. For example, --LLT should be used to represent the Lowest Level Term text \ndescription and --LLTCD should be used to represent the Lowest Level Term code value. \n• \nFor concomitant medications, populate CMDECOD with the drug's generic name and populate CMCLAS \nwith the drug class used for the sponsor's analysis and summary tables. If coding to multiple classes, follow \nSection 4.2.8.1, Multiple Values for an Intervention or Event Topic Variable, or omit CMCLAS. \n• \nFor concomitant medications, supplemental qualifiers may be used to represent additional coding \ndictionary information (e.g., a drug's ATC codes from the WHO Drug Dictionary; see Section 8.4, Relating \nNon-standard Variable Values to a Parent Domain). \nThe sponsor is expected to provide the dictionary name and version used to map the terms by utilizing the Define-\nXML external codelist attributes. \n4.3.6 Storing Topic Variables for General Domain Models \nThe topic variable for the Interventions and Events general observation-class models is often stored as verbatim text. \nFor an Events domain, the topic variable is --TERM. For an Interventions domain, the topic variable is --TRT. For a \nFindings domain, the topic variable --TESTCD should use controlled terminology (e.g., \"SYSBP\" for systolic blood \npressure). If CDISC Controlled Terminology exists, it should be used; otherwise, sponsors should define their own \ncontrolled list of terms. If the verbatim topic variable in an Interventions or Event domain is modified to facilitate \ncoding, the modified text is stored in --MODIFY. In most cases—other than Physical Examination (PE)—the \n"
  },
  {
    "page": 38,
    "text": "CDISC Study Data Tabulation Model Implementation Guide: Human Clinical Trials (3.4 Final) \n© 2021 Clinical Data Interchange Standards Consortium, Inc. All rights reserved  \n Page 38 \n2021-11-29 \ndictionary-coded text is derived into --DECOD. Because the PEORRES variable is modified instead of the topic \nvariable for PE, the dictionary-derived text would be placed in PESTRESC. The variables used in each of the \ndefined domains are: \nDomain Original Verbatim Modified Verbatim Standardized Value \nAE \nAETERM \nAEMODIFY \nAEDECOD \nDS \nDSTERM \n \nDSDECOD \nCM \nCMTRT \nCMMODIFY \nCMDECOD \nMH \nMHTERM \nMHMODIFY \nMHDECOD \nPE \nPEORRES \nPEMODIFY \nPESTRESC \n4.3.7 Use of \"Yes\" and \"No\" Values \nVariables where the response is \"Yes\" or \"No\" (\"Y\" or \"N\") should normally be populated for both \"Y\" and \"N\" \nresponses. This eliminates confusion regarding whether a blank response indicates \"N\" or is a missing value. \nHowever, some variables are collected or derived in a manner that allows only 1 response, such as when a single \ncheckbox indicates \"Yes\". In situations such as these, where it is unambiguous to populate only the response of \ninterest, it is permissible to populate only 1 value (\"Y\" or \"N\") and leave the alternate value blank. An example of \nwhen it would be acceptable to use only a value of \"Y\" would be for Last Observation Before Exposure Flag (--\nLOBXFL) variables, where \"N\" is not necessary to indicate that a value is not the last observation before exposure. \nNote: Permissible values for variables with controlled terms of \"Y\" or \"N\" may be extended to include \"U\" or \n\"NA\" if it is the sponsor's practice to explicitly collect or derive values indicating \"Unknown\" or \"Not Applicable\" \nfor that variable. \n4.4 Actual and Relative Time Assumptions \nTiming variables (SDTM Section 3.1.5, Timing Variables for All Classes) are an essential component of all SDTM \nsubject-level domain datasets. In general, all domains based on the 3 general observation classes should have at least \n1 timing variable. In the Events or Interventions general observation class, this could be the start date of the event or \nintervention. In the Findings observation class, where data are usually collected at multiple visits, at least 1 timing \nvariable must be used. \nThe SDTMIG requires dates and times of day to be stored according to the international standard ISO 8601 \n(http://www.iso.org). ISO 8601 provides a text-based representation of dates and/or times, intervals of time, and \ndurations of time. \n4.4.1 Formats for Date/Time Variables \nAn SDTM DTC variable may include data that is represented in ISO 8601 format as a complete date/time, a partial \ndate/time, or an incomplete date/time. \nThe SDTMIG template uses ISO 8601 for calendar dates and times of day, which are expressed as follows: \n• \nYYYY-MM-DDThh:mm:ss(.n+)?(((+|-)hh:mm)|Z)? \nwhere: \n• \n[YYYY] = four-digit year \n• \n[MM] = two-digit representation of the month (01-12, 01=January, etc.) \n• \n[DD] = two-digit day of the month (01 through 31) \n• \n[T] = (time designator) indicates time information follows \n• \n[hh] = two digits of hour (00 through 23) (am/pm is NOT allowed) \n• \n[mm] = two digits of minute (00 through 59) \n• \n[ss] = two digits of second (00 through 59) \nThe last two components, indicated in the format pattern with a question mark, are optional: \n"
  },
  {
    "page": 39,
    "text": "CDISC Study Data Tabulation Model Implementation Guide: Human Clinical Trials (3.4 Final) \n© 2021 Clinical Data Interchange Standards Consortium, Inc. All rights reserved  \n Page 39 \n2021-11-29 \n• \n[(.n+)?] = optional fractions of seconds \n• \n[(((+|-)hh:mm)|Z)?] = optional time zone \nOther characters defined for use within the ISO 8601 standard are: \n• \n[-] (hyphen): to separate the time elements \"year\" from \"month\" and \"month\" from \"day\" and to represent \nmissing date components. \n• \n[:] (colon): to separate the time elements \"hour\" from \"minute\" and \"minute\" from \"second\" \n• \n[/] (solidus): to separate components in the representation of date/time intervals \n• \n[P] (duration designator): precedes the components that represent the duration \nSpaces are not allowed in any ISO 8601 representations. \nKey aspects of the ISO 8601 standard are as follows: \n• \nISO 8601 represents dates as a text string using the notation YYYY-MM-DD. \n• \nISO 8601 represents times as a text string using the notation hh:mm:ss(.n+)?(((+|-)hh:mm)|Z)?. \n• \nThe SDTM and the SDTMIG require use of the ISO 8601 extended format, which requires hyphen \ndelimiters for date components and colon delimiters for time components. The ISO 8601 basic format, \nwhich does not require delimiters, should not be used in SDTM datasets. \n• \nWhen a date is stored with a time in the same variable (as a date/time), the date is written in front of the \ntime and the time is preceded with \"T\" using the notation YYYY-MM-DDThh:mm:ss (e.g. 2001-12-\n26T00:00:01). \nImplementation of the ISO 8601 standard means that date/time variables are character/text data types. The SDTM \nfragment employed for date/time character variables is DTC. \n4.4.2 Date/Time Precision \nThe concept of representing date/time precision is handled through use of the ISO 8601 standard. According to ISO \n8601, precision (also referred to by ISO 8601 as \"completeness\" or \"representations with reduced accuracy\") can be \ninferred from the presence or absence of components in the date and/or time values. Missing components are \nrepresented by right truncation or a hyphen (for intermediate components that are missing). If the date and time \nvalues are completely missing, the SDTM date field should be null. Every component except year is represented as 2 \ndigits. Years are represented as 4 digits; for all other components, 1-digit numbers are always padded with a leading \nzero. \nThe following table provides examples of ISO 8601 representations of complete and truncated date/time values \nusing ISO 8601 \"appropriate right truncations\" of incomplete date/time representations. Note that if no time \ncomponent is represented, the [T] time designator (in addition to the missing time) must be omitted in ISO 8601 \nrepresentation. \n \nDate and Time as Originally Recorded Precision \nISO 8601 Date/Time \n1 December 15, 2003 13:14:17.123 \nDate/time, including fractional seconds 2003-12-15T13:14:17.123 \n2 December 15, 2003 13:14:17 \nDate/time to the nearest second \n2003-12-15T13:14:17 \n3 December 15, 2003 13:14 \nUnknown seconds \n2003-12-15T13:14 \n4 December 15, 2003 13 \nUnknown minutes and seconds \n2003-12-15T13 \n5 December 15, 2003 \nUnknown time \n2003-12-15 \n6 December, 2003 \nUnknown day and time \n2003-12 \n7 2003 \nUnknown month, day, and time \n2003 \nThis date and date/time model also provides for imprecise or estimated dates, such as those commonly seen in \nMedical History. To represent these intervals while applying the ISO 8601 standard, it is recommended that the \nsponsor concatenate the date/time values (using the most complete representation of the date/time known) that \ndescribe the beginning and the end of the interval of uncertainty and separate them with a solidus, as shown in the \nfollowing table. \n"
  },
  {
    "page": 40,
    "text": "CDISC Study Data Tabulation Model Implementation Guide: Human Clinical Trials (3.4 Final) \n© 2021 Clinical Data Interchange Standards Consortium, Inc. All rights reserved  \n Page 40 \n2021-11-29 \n \nInterval of Uncertainty \nISO 8601 Date/Time \n1 Between 10:00 and 10:30 on the morning of December 15, 2003 \n2003-12-15T10:00/2003-12-15T10:30 \n2 Between the first of this year (2003) until \"now\" (February 15, 2003) 2003-01-01/2003-02-15 \n3 Between the first and the tenth of December, 2003 \n2003-12-01/2003-12-10 \n4 Sometime in the first half of 2003 \n2003-01-01/2003-06-30 \nOther uncertainty intervals may be represented by the omission of components of the date when these components \nare unknown or missing. As previously mentioned, ISO 8601 represents missing intermediate components through \nthe use of a hyphen where the missing component would normally be represented. This may be used in addition to \n\"appropriate right truncations\" for incomplete date/time representations. When components are omitted, the \nexpected delimiters must still be kept in place and only a single hyphen is to be used to indicate an omitted \ncomponent. Examples of this method of omitted component representation are shown in the following table. \n  Date and Time as Originally Recorded \nLevel of Uncertainty \nISO 8601 \nDate/Time \n1 December 15, 2003 13:15:17 \nDate/time to the nearest second \n2003-12-\n15T13:15:17 \n2 December 15, 2003 ??:15 \nUnknown hour with known minutes \n2003-12-15T-:15 \n3 December 15, 2003 13:??:17 \nUnknown minutes with known date, hours, and \nseconds \n2003-12-15T13:-:17 \n4 The 15th of some month in 2003, time not collected \nUnknown month and time with known year and \nday \n2003---15 \n5 December 15, but can't remember the year, time not \ncollected \nUnknown year with known month and day \n--12-15 \n6 7:15 of some unknown date \nUnknown date with known hour and minute \n-----T07:15 \nNote that row 6, where a time is reported with no date information, represents a very unusual situation. Because \nmost data are collected as part of a visit, when only a time appears on a CRF, it is expected that the date of the visit \nwould usually be used as the date of collection. \nUsing a character-based data type to implement the ISO 8601 date/time standard will ensure that the date/time \ninformation will be machine- and human-readable without the need for further manipulation, and will be platform- \nand software-independent. \n4.4.3 Intervals of Time and Use of Duration for --DUR Variables \n4.4.3.1 Intervals of Time and Use of Duration \nAs defined by ISO 8601, an interval of time is the part of a time axis, limited by 2 time \"instants\" such as the times \nrepresented in SDTM by the variables --STDTC and --ENDTC. These variables represent the 2 instants that bound \nan interval of time; the duration is the quantity of time that is equal to the difference between these time points. \nISO 8601 allows an interval to be represented in multiple ways. One representation, shown below, uses 2 dates in \nthe format: \nYYYY-MM-DDThh:mm:ss/YYYY-MM-DDThh:mm:ss \nAlthough this example represents the interval (by providing the start date/time and end date/time to bound the \ninterval of time), it does not provide the value of the duration (the quantity of time). \nDuration is frequently used during a review; however, the duration timing variable (--DUR) should generally be \nused in a domain if it was collected in lieu of a start date/time (--STDTC) and end date/time (--ENDTC). If both --\nSTDTC and --ENDTC are collected, durations can be calculated by the difference in these 2 values, and need not be \nin the submission dataset. \nBoth duration and duration units can be provided in the single --DUR variable, in accordance with the ISO 8601 \nstandard. The values provided in --DUR should follow 1 of the following ISO 8601 duration formats: \nPnYnMnDTnHnMnS \n- or - \nPnW \nwhere the letter designation is defined as: \n• \n[P] (duration designator): precedes the alphanumeric text string that represents the duration. Note that the \nuse of the character \"P\" is based on the historical use of the term \"period\" for duration. \n"
  },
  {
    "page": 41,
    "text": "CDISC Study Data Tabulation Model Implementation Guide: Human Clinical Trials (3.4 Final) \n© 2021 Clinical Data Interchange Standards Consortium, Inc. All rights reserved  \n Page 41 \n2021-11-29 \n• \n[n] represents a positive number or zero. \n• \n[W] is used as week designator, preceding a data element that represents the number of calendar weeks \nwithin the calendar year (e.g., P6W represents 6 weeks of calendar time). \nThe letter \"P\" must precede other values in the ISO 8601 representation of duration. The \"n\" preceding each letter \nrepresents the number of years, months, days, hours, minutes, seconds, or the number of weeks. As with the \ndate/time format, \"T\" is used to separate the date components from time components. \nNote that weeks cannot be mixed with any other date/time components such as days or months in duration \nexpressions. \nAs is the case with the date/time representation in --DTC, --STDTC, or --ENDTC, only the components of duration \nthat are known or collected need to be represented. As is the case with the date/time representation, if no time \ncomponent is represented, the [T] time designator (in addition to the missing time) must be omitted in ISO 8601 \nrepresentation. \nISO 8601 also allows that the \"lowest-order components\" of duration being represented may be represented in \ndecimal format. This may be useful if data are collected in formats such as \"one and one-half years\", \"two and a half \nweeks\", \"half a week\" or \"quarter of an hour\" and the sponsor wishes to represent this \"precision\" (or lack of \nprecision) in ISO 8601 representation. This is ONLY allowed in the lowest-order (right-most) component in any \nduration representation. \nThe following table provides some examples of ISO 8601-compliant representations of durations. \nDuration as originally recorded \nISO 8601 Duration \n2 years \nP2Y \n10 weeks \nP10W \n3 months 14 days \nP3M14D \n3 days \nP3D \n6 months 17 days 3 hours \nP6M17DT3H \n14 days 7 hours 57 minutes \nP14DT7H57M \n42 minutes 18 seconds \nPT42M18S \nOne-half hour \nPT0.5H \n5 days 12¼ hours \nP5DT12.25H \n4 ½ weeks \nP4.5W \nNote that a leading zero is required with decimal values less than 1. \n4.4.3.2 Interval with Uncertainty \nWhen an interval of time is an amount of time (duration) following an event whose start date/time is recorded (with \nsome level of precision, e.g., when one knows the start date/time and the duration following the start date/time), the \ncorrect ISO 8601 usage to represent this interval is: \nYYYY-MM-DDThh:mm:ss/PnYnMnDTnHnMnS \nwhere the start date/time is represented before the solidus or foreword slash [/], the \"Pn…\" following the solidus \nrepresents a \"duration,\" and the entire representation is known as an \"interval.\" Note that this is the recommended \nrepresentation of elapsed time, given a start date/time and the duration elapsed. \nWhen an interval of time is an amount of time (duration) measured prior to an event whose start date/time is \nrecorded (with some level of precision, e.g., where one knows the end date/time and the duration preceding that end \ndate/time), the syntax is: \nPnYnMnDTnHnMnS/YYYY-MM-DDThh:mm:ss \nwhere the duration, \"Pn…\", is represented before the solidus [/], the end date/time is represented following the \nsolidus, and the entire representation is known as an \"interval.\" \n4.4.4 Use of the Study Day Variables \nThe permissible study day variables (i.e., --DY, --STDY, --ENDY) describe the relative day of the observation \nstarting with the reference date as day 1. They are determined by comparing the date portion of the respective \ndate/time variables (--DTC, --STDTC, and --ENDTC) to the date portion of the subject reference start date \n(RFSTDTC from the Demographics domain). \n"
  },
  {
    "page": 42,
    "text": "CDISC Study Data Tabulation Model Implementation Guide: Human Clinical Trials (3.4 Final) \n© 2021 Clinical Data Interchange Standards Consortium, Inc. All rights reserved  \n Page 42 \n2021-11-29 \nThe subject reference start date (RFSTDTC) is designated as study day 1. The study day value is incremented by 1 \nfor each date following RFSTDTC. Dates prior to RFSTDTC are decreased by 1, with the date preceding RFSTDTC \ndesignated as study day -1 (there is no study day 0). This algorithm for determining Study Day is consistent with \nhow people typically describe sequential days relative to a fixed reference point, but creates problems if used for \nmathematical calculations because it does not allow for a day 0. As such, Study Day is not suited for use in \nsubsequent numerical computations, such as calculating duration. The raw date values should be used rather than \nStudy Day in those calculations. \nAll study day values are integers. Thus, to calculate Study Day: \n--DY = (date portion of --DTC) - (date portion of RFSTDTC) + 1 if --DTC is on or after RFSTDTC \n--DY = (date portion of --DTC) - (date portion of RFSTDTC) if --DTC precedes RFSTDTC \n \nThis method should be used across all domains. \n4.4.5 Clinical Encounters and Visits \nAll domains based on the 3 general observation classes should have at least 1 timing variable. For domains in the \nEvents or Interventions observation classes, and for domains in the Findings observation class, for which data are \ncollected only once during the study, the most appropriate timing variable may be a date (e.g., --DTC, --STDTC) or \nsome other timing variable. For studies that are designed with a prospectively defined schedule of visit-based \nactivities, domains for data that are to be collected more than once per subject (e.g., labs, ECG, vital signs) are \nexpected to include VISITNUM as a timing variable. \nClinical encounters are described by the CDISC visit variables. For planned visits, values of VISIT, VISITNUM, \nand VISITDY must be those defined in the Trial Visits (TV) dataset (see Section 7.3.1, Trial Visits). For planned \nvisits: \n• \nValues of VISITNUM are used for sorting and should, wherever possible, match the planned chronological \norder of visits. Occasionally, a protocol will define a planned visit whose timing is unpredictable (e.g., \nplanned in response to an adverse event, a threshold test value, or a disease event), and completely \nchronological values of VISITNUM may not be possible in such cases. \n• \nThere should be a one-to-one relationship between values of VISIT and VISITNUM. \n• \nFor visits that may last more than 1 calendar day, VISITDY should be the planned day of the start of the \nvisit. \nSponsor practices for populating visit variables for unplanned visits may vary. \n• \nVISITNUM should generally be populated, even for unplanned visits, as it is expected in many Findings \ndomains, as described above. The easiest method of populating VISITNUM for unplanned visits is to \nassign the same value (e.g., 99) to all unplanned visits, although this method provides no differentiation \nbetween the unplanned visits and does not provide chronological sorting. Methods that provide a one-to-\none relationship between visits and values of VISITNUM, that are consistent across domains, and that \nassign VISITNUM values that sort chronologically require more work and must be applied after all of a \nsubject's unplanned visits are known. \n• \nVISIT may be left null or may be populated with a generic value (e.g., \"Unscheduled\") for all unplanned \nvisits, or individual values may be assigned to different unplanned visits. \n• \nVISITDY must not be populated for unplanned visits; VISITDY is, by definition, the planned study day of \nvisit. The actual study day of an unplanned visit belongs in a --DY variable. \nThe following lb.xpt sample rows show how visit identifiers might be used for lab data. \nlb.xpt \nUSUBJID VISIT \nVISITNUM VISITDY LBDY \n001 \nWeek 1 \n2 \n7 \n7 \n001 \nWeek 2 \n3 \n14 \n13 \n001 \nWeek 2 Unscheduled 3.1 \n \n17 \n \n"
  },
  {
    "page": 43,
    "text": "CDISC Study Data Tabulation Model Implementation Guide: Human Clinical Trials (3.4 Final) \n© 2021 Clinical Data Interchange Standards Consortium, Inc. All rights reserved \n Page 43 \n2021-11-29 \n4.4.6 Representing Additional Study Days \nThe SDTM allows for the representation of study days relative to the RFSTDTC reference start date variable in the \nDM dataset, using variables --DY, as described in Section 4.4.4, Use of the \"Study Day\" Variables. The calculation \nof additional study days within subdivisions of time in a clinical trial may be based on 1 or more sponsor-defined \nreference dates not represented by RFSTDTC. In such cases, the sponsor may define supplemental qualifier \nvariables and the Define-XML document should reflect the reference dates used to calculate such study days. If the \nsponsor wishes to define \"day within element\" or \"day within epoch\", the reference date/time will be an element \nstart date/time in the Subject Elements (SE) dataset (see Section 5.3, Subject Elements). \n4.4.7 Use of Relative Timing Variables \n--STRF and --ENRF \nThe variables --STRF and --ENRF represent the timing of an observation relative to the sponsor-defined study \nreference period, when information such as \"BEFORE\", \"PRIOR\", \"ONGOING\"', or \"CONTINUING\" is collected \nin lieu of a date and this collected information is in relation to the sponsor-defined study reference period. The \nsponsor-defined study reference period is the continuous period of time defined by the discrete starting point, \nRFSTDTC, and the discrete ending point, RFENDTC, for each subject in the Demographics (DM) dataset. \n--STRF is used to identify the start of an observation relative to the sponsor-defined study reference period. \n--ENRF is used to identify the end of an observation relative to the sponsor-defined study reference period. \nAllowable values for --STRF are \"BEFORE\", \"DURING\", \"DURING/AFTER\", \"AFTER\", and \"UNKNOWN\". \nAlthough \"COINCIDENT\" and \"ONGOING\" are in the STENRF codelist, they describe timing relative to a point in \ntime rather than an interval of time, so are not appropriate for use with --STRF variables. It would be unusual for an \nevent or intervention to be recorded as starting \"AFTER\" the study reference period, but could be possible, \ndepending on how the study reference period is defined in a particular study. \nAllowable values for --ENRF are \"BEFORE\", \"DURING\", \"DURING/AFTER\", \"AFTER\" and \"UNKNOWN\". If --\nENRF is used, then --ENRF = \"AFTER\" means that the event did not end before or during the study reference \nperiod. Although \"COINCIDENT\" and \"ONGOING\" are in the STENRF codelist, they describe timing relative to a \npoint in time rather than an interval of time, so are not appropriate for use with --ENRF variables.As an example, a \nCRF checkbox that identifies concomitant medication use that began prior to the study reference period would \ntranslate into CMSTRF = \"BEFORE\", if selected. Note that in this example, the information collected is with \nrespect to the start of the concomitant medication use only, and therefore the collected data corresponds to variable \nCMSTRF, not CMENRF. Note also that the information collected is relative to the study reference period, which \nmeets the definition of CMSTRF.Some sponsors may wish to derive --STRF and --ENRF for analysis or reporting \npurposes even when dates are collected. Sponsors are cautioned that doing so in conjunction with directly collecting \nor mapping data such as \"BEFORE\", \"PRIOR\", and \"ONGOING\" to --STRF and --ENRF will blur the distinction \nbetween collected and derived values within the domain. Sponsors wishing to do such derivations are instead \nencouraged to use analysis datasets for this derived data. \nIn general, sponsors are cautioned that representing information using variables --STRF and --ENRF may not be as \nprecise as other methods, particularly because information is often collected relative to a point in time or to a period \nof time other than the one defined as the study reference period. SDTMIG v3.1.2 attempted to address these \nlimitations by the addition of 4 new relative timing variables, which are described in the following section. Sponsors \nshould use the set of variables that allows for accurate representation of collected data. In many cases, this will mean \nusing these new relative timing variables in place of --STRF and --ENRF. \n--STRTPT, --STTPT, --ENRTPT, and --ENTPT \nAlthough the variables --STRF and --ENRF are useful in the case when relative timing assessments are made \ncoincident with the start and end of the study reference period, they may not be suitable for expressing relative \ntiming assessments (e.g., \"Prior\", \"Ongoing\") that are collected at other times of the study. As a result, 4 new timing \nvariables were added in SDTMIG v3.1.2 to express a similar concept at any point in time. The variables --STRTPT \nand --ENRTPT contain values similar to --STRF and --ENRF, but may be anchored with any timing description or \ndate/time value expressed in the respective --STTPT and --ENTPT variables, and are not limited to the study \nreference period. Unlike the variables --STRF and --ENRF, which for all domains are defined relative to one study \n"
  },
  {
    "page": 44,
    "text": "CDISC Study Data Tabulation Model Implementation Guide: Human Clinical Trials (3.4 Final) \n© 2021 Clinical Data Interchange Standards Consortium, Inc. All rights reserved \n Page 44 \n2021-11-29 \nreference period, the timing variables --STRTPT, --STTPT, --ENRTPT, and --ENTPT are defined by each sponsor \nfor each study. Allowable values for --STRTPT and --ENRTPT are as follows. \nIf the reference time point corresponds to the date of collection or assessment: \n•\nStart values: An observation can start BEFORE that time point, can start COINCIDENT with that time\npoint, or it can be UNKNOWN when it started.\n•\nEnd values: An observation can end BEFORE that time point, can end COINCIDENT with that time point,\ncan be known that it did not end but was ONGOING, or it can be UNKNOWN when it ended or if it was\nongoing.\n•\nAFTER is not a valid value in this case because it would represent an event after the date of collection.\nIf the reference time point is prior to the date of collection or assessment: \n•\nStart values: An observation can start BEFORE the reference point, can start COINCIDENT with the\nreference point, can start AFTER the reference point, or it can be UNKNOWN when it started.\n•\nEnd values: An observation can end BEFORE the reference point, can end COINCIDENT with the\nreference point, can end AFTER the reference point, can be known that it did not end but was ONGOING,\nor it can be UNKNOWN when it ended or if it was ongoing.\nAlthough \"DURING\" and \"DURING/AFTER\" are in the STENRF codelist, they describe timing relative to an \ninterval of time rather than a point in time, so are not allowable for use with --STRTPT and --ENRTPT variables. \nExamples of --STRTPT, --STTPT, --ENRTPT, and --ENTPT \nExample 1: Medical History \nAssumptions: \n•\nCRF contains \"Year Started\" and checkbox for \"Active\"\n•\n\"Date of Assessment\" is collected\nExample when \"Active\" is checked: \n•\nMHDTC = date of assessment value (e.g., \"2006-11-02\")\n•\nMHSTDTC = year of condition start (e.g., \"2002\")\n•\nMHENRTPT = \"ONGOING\"\n•\nMHENTPT = date of assessment value (e.g., \"2006-11-02\")\nFigure. Example of --ENRTPT and --ENTPT for Medical History \n"
  },
  {
    "page": 45,
    "text": "CDISC Study Data Tabulation Model Implementation Guide: Human Clinical Trials (3.4 Final) \n© 2021 Clinical Data Interchange Standards Consortium, Inc. All rights reserved  \n Page 45 \n2021-11-29 \nExample 2: Prior and Concomitant Medications \nAssumptions: \n• \nCRF includes collection of \"Start Date\" and \"Stop Date\", and checkboxes for \no \n\"Prior\" if  start date was before the screening visit and was unknown or uncollected \no \n\"Continuing\" if medication had not stopped as of the final study visit, so no end date was collected \nExample when both \"Prior\" and \"Continuing\" are checked: \n• \nCMSTDTC is null \n• \nCMENDTC is null \n• \nCMSTRTPT = \"BEFORE\" \n• \nCMSTTPT is screening date (e.g., \"2006-10-21\") \n• \nCMENRTPT = \"ONGOING\" \n• \nCMENTPT is final study visit date (e.g., \"2006-11-02\") \nExample 3: Adverse Events \nAssumptions: \n• \nCRF contains \"Start Date\", \"Stop Date\" \n• \nCollection of \"Outcome\" includes checkboxes for \"Continuing\" and \"Unknown\", to be used, if necessary, at \nthe end of the subject's participation in the trial \n• \nNo assessment date or visit information was collected \nExample when \"Unknown\" is checked: \n• \nAESTDTC is start date (e.g., \"2006-10-01\") \n• \nAEENDTC is null \n• \nAEENRTPT = \"UNKNOWN\" \n• \nAEENTPT is final subject contact date (e.g., \"2006-11-02\") \n4.4.8 Date and Time Reported in a Domain Based on Findings \nWhen the date/time of collection is reported in any domain, the date/time should go into the --DTC field (e.g., \nEGDTC for Date/Time of ECG). For any domain based on the Findings general observation class (e.g., lab tests \nbased on a specimen), the collection date is likely to be tied to when the source of the finding was captured, not \nnecessarily when the data were recorded. In order to ensure that the critical timing information is always represented \nin the same variable, the --DTC variable is used to represent the time of specimen collection. For example, in the \nLaboratory Test Results (LB) domain, the LBDTC variable would be used for all single-point blood collections or \nspot urine collections. For timed lab collections (e.g., 24-hour urine collections) the LBDTC variable would be used \nfor the start date/time of the collection and LBENDTC for the end date/time of the collection. This approach allows \nthe single-point and interval collections to use the same date/time variables consistently across all datasets for the \nFindings general observation class. The following table illustrates the proper use of these variables. Note that --\nSTDTC should not be used in the Findings general observation class and is therefore blank in this table. \nCollection Type \n--DTC --STDTC --ENDTC \nSingle-point Collection X \n \n \nInterval Collection \nX \n \nX \n4.4.9 Use of Dates as Result Variables \nDates are generally used only as timing variables to describe the timing of an event, intervention, or collection \nactivity, but there may be occasions when it may be preferable to model a date as a result (--ORRES) in a Findings \ndataset. Note that using a date as a result to a Findings question is unusual and atypical, and should be approached \n"
  },
  {
    "page": 46,
    "text": "CDISC Study Data Tabulation Model Implementation Guide: Human Clinical Trials (3.4 Final) \n© 2021 Clinical Data Interchange Standards Consortium, Inc. All rights reserved \n Page 46 \n2021-11-29 \nwith caution. This situation, however, may occasionally occur when (1) a group of questions (each of which has a \ndate response) is asked and analyzed together; or (2) the event(s) and intervention(s) in question are not medically \nsignificant (e.g., when included in questionnaires). Consider the following cases: \n•\nCalculated due date\n•\nDate of last day on the job\n•\nDate of high school graduation\nOne approach to modeling these data would be to place the text of the question in --TEST and the response to the \nquestion (a date represented in ISO 8601 format) in --ORRES and --STRESC, as long as these date results do not \ncontain the dates of medically significant events or interventions. \nAgain, use extreme caution when storing dates as the results of findings. Remember, in most cases, these dates \nshould be timing variables associated with a record in an Intervention or Events dataset. \n4.4.10 \nRepresenting Time Points \nTime points can be represented using the time point variables --TPT, --TPTNUM, --ELTM, and the time-point \nanchors --TPTREF (text description) and --RFTDTC (the date/time). Note that time-point data will usually have an \nassociated --DTC value. The interrelationship of these variables is shown in the following figure. \nFigure. Representing Time Points \nValues for these variables for vital signs measurements taken at 30, 60, and 90 minutes after dosing would look like \nthe following. \nVSTPTNUM \nVSTPT \nVSELTM \nVSTPTREF \nVSRFTDTC \nVSDTC \n1 \n30 MIN \nPT30M \nDOSE ADMINISTRATION \n2006-08-01T08:00 \n2006-08-01T08:30 \n2 \n60 MIN \nPT1H \nDOSE ADMINISTRATION \n2006-08-01T08:00 \n2006-08-01T09:01 \n3 \n90 MIN \nPT1H30M \nDOSE ADMINISTRATION \n2006-08-01T08:00 \n2006-08-01T09:32 \nNote that VSELTM is the planned elapsed time, not the actual elapsed time. The actual elapsed time could be \nderived in an analysis dataset, if desired, as VSDTC-VSRFTDTC. \nValues for these variables for urine collections taken pre-dose, and from 0-12 hours and 12-24 hours after dosing \nwould look like the following. \nLBTPTNUM \nLBTPT \nLBELTM \nLBTPTREF \nLBRFTDTC \nLBDTC \n1 \n15 MIN PRE-DOSE \n-PT15M\nDOSE ADMINISTRATION \n2006-08-01T08:00 \n2006-08-01T07:45 \n2 \n0-12 HOURS\nPT12H \nDOSE ADMINISTRATION \n2006-08-01T08:00 \n2006-08-01T20:35 \n3 \n12-24 HOURS\nPT24H \nDOSE ADMINISTRATION \n2006-08-01T08:00 \n2006-08-02T08:40 \nNote that the value in LBELTM represents the end of the specimen collection interval. \nWhen time points are represented in SDTMIG domains, both --TPT and --TPTNUM must be used. Time points may \nor may not have an associated --TPTREF. Sometimes, --TPTNUM may be used as a key for multiple values \ncollected for the same test within a visit; as such, there is no dependence upon an anchor such as --TPTREF, but \nthere will be a dependency upon VISITNUM. In such cases, VISITNUM will be required to confer uniqueness to \nvalues of --TPTNUM. \n"
  },
  {
    "page": 47,
    "text": "CDISC Study Data Tabulation Model Implementation Guide: Human Clinical Trials (3.4 Final) \n© 2021 Clinical Data Interchange Standards Consortium, Inc. All rights reserved  \n Page 47 \n2021-11-29 \nIf the protocol describes the scheduling of a dose using a reference intervention or assessment, then --TPTREF \nshould be populated, even if it does not contribute to uniqueness. The fact that time points are related to a reference \ntime point, and what that reference time point is, are important for interpreting the data collected at the time point. \nNot all time points will require all 3 variables to provide uniqueness. In fact, in some cases a time point may be \nuniquely identified without the use of VISIT, or without the use of --TPTREF, or without the use of either. For \ninstance: \n• \nA trial might have time points only within 1 visit, so that the contribution of VISITNUM to uniqueness is \ntrivial. (VISITNUM would be populated, but would not contribute to uniqueness.) \n• \nA trial might have time points that do not relate to any visit, such as time points relative to a dose of drug \nself-administered by the subject at home. (Visit variables would not be included, but --TPTREF and other \ntime point variables would be populated.) \n• \nA trial may have only 1 reference time point per visit, and all reference time points may be similar, so that \nonly 1 value of --TPTREF (e.g., \"DOSE\") is needed. (--TPTREF would be populated, but would not \ncontribute to uniqueness.) \n• \nA trial may have time points not related to a reference time point. For instance, --TPTNUM values could be \nused to distinguish first, second, and third repeats of a measurement scheduled without any relationship to \ndosing (–TPTREF and --ELTM would not be included.) In this case, where the protocol calls for repeated \nmeasurements but does not specify timing of the measurements, the --REPNUM variable could be used \ninstead of time-point variables. \nFor trials with many time points, the requirement to provide uniqueness using only VISITNUM, --TPTREF, and --\nTPTNUM may lead to a scheme where multiple natural keys are combined into the values of one of these variables. \nFor instance, in a crossover trial with multiple doses on multiple days within each period, either of the following \noptions could be used. \n1. VISITNUM might be used to designate period, --TPTREF might be used to designate the day and the dose, \nand --TPTNUM might be used to designate the timing relative to the reference time point. \n2. VISITNUM might be used to designate period and day within period, --TPTREF might be used to \ndesignate the dose within the day, and --TPTNUM might be used to designate the timing relative to the \nreference time point. \nOption 1 \nVISIT \nVISITNUM --TPT \n--TPTNUM --TPTREF \nPERIOD 1 3 \nPRE-DOSE 1 \nDAY 1, AM DOSE \n1H \n2 \n4H \n3 \nPRE-DOSE 1 \nDAY 1, PM DOSE \n1H \n2 \n4H \n3 \nPRE-DOSE 1 \nDAY 5, AM DOSE \n1H \n2 \n4H \n3 \nPRE-DOSE 1 \nDAY 5, PM DOSE \n1H \n2 \n4H \n3 \nPERIOD 2 4 \nPRE-DOSE 1 \nDAY 1, AM DOSE \n1H \n2 \n4H \n3 \nPRE-DOSE 1 \nDAY 1, PM DOSE \n1H \n2 \n4H \n3 \n \n \n \n"
  },
  {
    "page": 48,
    "text": "CDISC Study Data Tabulation Model Implementation Guide: Human Clinical Trials (3.4 Final) \n© 2021 Clinical Data Interchange Standards Consortium, Inc. All rights reserved  \n Page 48 \n2021-11-29 \nOption 2 \nVISIT \nVISITNUM --TPT \n--TPTNUM --TPTREF \nPERIOD 1, DAY 1 3 \nPRE-DOSE 1 \nAM DOSE \n1H \n2 \n4H \n3 \nPRE-DOSE 1 \nPM DOSE \n1H \n2 \n4H \n3 \nPERIOD 1, DAY 5 4 \nPRE-DOSE 1 \nAM DOSE \n1H \n2 \n4H \n3 \nPRE-DOSE 1 \nPM DOSE \n1H \n2 \n4H \n3 \nPERIOD 2, DAY 1 5 \nPRE-DOSE 1 \nAM DOSE \n1H \n2 \n4H \n3 \nPRE-DOSE 1 \nPM DOSE \n1H \n2 \n4H \n3 \nWithin the context that defines uniqueness for a time point (which may include domain, visit, and reference time \npoint), there must be a one-to-one relationship between values of --TPT and --TPTNUM. In other words, if domain, \nvisit, and reference time point uniquely identify subject data, then if 2 subjects have records with the same values of \nDOMAIN, VISITNUM, --TPTREF, and --TPTNUM, these records may not have different time point descriptions in \n--TPT. \nWithin the context that defines uniqueness for a time point, there is likely to be a one-to-one relationship between \nmost values of --TPT and --ELTM. However, because --ELTM can only be populated with ISO 8601 periods of \ntime (as described in Section 4.4.3, Intervals of Time and Use of Duration for --DUR Variables), --ELTM may not \nbe populated for all time points. For example, --ELTM is likely to be null for time points described by text such as \n\"pre-dose\" or \"before breakfast.\" When --ELTM is populated, if 2 subjects have records with the same values of \nDOMAIN, VISITNUM, --TPTREF, and --TPTNUM, then these records may not have different values in --ELTM. \nWhen the protocol describes a time point with text (e.g., \"4-6 hours after dose,\" \"12 hours +/- 2 hours after dose\"), \nthe sponsor may choose whether and how to populate --ELTM. For example, a time point described as \"4-6 hours \nafter dose\" might be associated with an --ELTM value of PT4H. A time point described as \"12 hours +/- 2 hours \nafter dose\" might be associated with an --ELTM value of PT12H. Conventions for populating --ELTM should be \nconsistent (the examples just given would probably not both be used in the same trial). It would be good practice to \nindicate the range of intended timings by some convention in the values used to populate --TPT. \nSponsors may, of course, use more stringent requirements for populating --TPTNUM, --TPT, and --ELTM. For \ninstance, a sponsor could decide that all time points with a particular --ELTM value would have the same values of -\n-TPTNUM, and --TPT, across all visits, reference time points, and domains. \n4.4.11 \nDisease Milestones and Disease Milestone Timing Variables \nA disease milestone is an event or activity that can be anticipated in the course of a disease, but whose timing is not \ncontrolled by the study schedule. A disease milestone may be something that occurred pre-study, but which \nrepresents a time at which data would have been collected (e.g., diagnosis of the disease under study). A disease \nmilestone may also be something which is anticipated to occur during a study and which, if it occurs, triggers the \ncollection of related data outside the regular schedule of visits (e.g., adverse event of interest). The types of disease \nmilestones for a study are defined in the study-level Trial Disease Milestones (TM) dataset (see Section 7.3.3, Trial \nDisease Milestones). The times at which disease milestones occurred for a particular subject are summarized in the \nspecial-purpose Subject Disease Milestones (SM) domain (see Section 5.4, Subject Disease Milestones), a domain \nsimilar in structure to the Subject Visits (SV) and Subject Elements (SE) domains. \nNot all studies will have disease milestones. If a study does not have disease milestones, the TM and SM domains \nwill not be present and the disease milestones timing variables may not be included in other domains. \n \n \n"
  },
  {
    "page": 49,
    "text": "CDISC Study Data Tabulation Model Implementation Guide: Human Clinical Trials (3.4 Final) \n© 2021 Clinical Data Interchange Standards Consortium, Inc. All rights reserved  \n Page 49 \n2021-11-29 \nDisease Milestone Naming \nInstances of disease milestones are given names at a subject level. The name of a disease milestone is composed of a \ncharacter string that depends on the disease milestone type (MIDSTYPE in TM and SM) and, if the type of disease \nmilestone is one that may occur multiple times, a chronological sequence number for this disease milestone among \nother instances of the same type for the subject. The character string used in the name of a disease milestone is \nusually a short form of the disease milestone type. For example, if the type of disease milestone is \"EPISODE OF \nDISEASE UNDER STUDY\", the values of MIDS for instances of this type of event could include \"EPISODE1\", \n\"EPISODE2\"; or \"EPISODE01\", \"EPISODE02\", and so on. The association between the longer text in MIDSTYPE \nand the shorter text in MIDS can be seen in SM, which includes both variables. \nDisease Milestone Name (MIDS) \nIf something that has been defined as a disease milestone for a particular study occurrs for a particular subject, it is \nrepresented as usual: in the appropriate findings, intervention, or events class record. In addition, this record will \ninclude the MIDS timing variable, populated with the name of the disease milestone. The timing of a disease \nmilestone is also represented in the special-purpose SM domain. \nThe record that represents a disease milestone does not include values for the timing variables RELMIDS and \nMIDSDTC, which are used to represent the timing of other observations relative to a disease milestone. The usual \ntiming variables in the record for a disease milestone (e.g., --DTC, --STDTC, --ENDTC) provide the needed timing \nfor this observation and for the timing information represented in the SM domain. \nTiming Relative to a Disease Milestone (MIDS, RELMIDS, MIDSDTC) \nFor an observation triggered by the occurrence of a disease milestone, the relationship of the observation to the \ndisease milestone can be represented using the disease milestones timing variables MIDS, RELMIDS, and \nMIDSDTC to describe the timing of the observation. \n• \nMIDS is populated with the name of a disease milestone for this subject. MIDS is the “anchor” for \ndescribing the timing of the observation relative to the disease milestone. In this sense, its function is \nsimilar to --TPTREF for time points. \n• \nRELMIDS is usually populated with a textual description of the temporal relationship between the \nobservation and the disease milestone named in MIDS. Controlled Terminology has not yet been developed \nfor RELMIDS, but is likely to include terms such as \"IMMEDIATELY BEFORE\", \"AT START OF\", \n\"DURING\", \"AT END OF\", and \"SHORTLY AFTER\". It is similar to --ELTM, except that --ELTM is \nrepresented ISO 8601 duration. \n• \nMIDSDTC is populated with the date/time of the disease milestone. This is the --DTC for a finding, or the -\n-STDTC for an event or intervention, and is the date recorded in SMSTDTC in the SM domain. Its function \nis similar to --RFTDTC for time points. \nIn some cases, data collected in conjunction with a disease milestone do not include the collection of a separate date \nfor the related observation. This is particularly common for pre-study disease milestones, but may occur with on-\nstudy disease milestones as well. In such cases, MIDSDTC provides a related date/time in records that would not \notherwise contain any date. In records that do contain date/time(s) of the observation, MIDSDTC allows easy \ncomparison of the date(s) of the observation to the (start) date of the disease milestone. In such cases, it functions \nmuch like the reference time point date/time (--RFTDTC) in observations at time points. \nWhen a disease milestone is an event or intervention, some data triggered by the disease milestone may be modeled \nas findings about the disease milestone (i.e., FAOBJ is the disease milestone). In such cases, RELMIDS should be \nused to describe the temporal relationship between the disease milestone and the subject of the question being asked \nin the finding, rather than as describing when the question was asked. \n• \nWhen the subject of the question is the disease milestone itself, RELMIDS may be populated with a value \nsuch as “ENTIRE EVENT” or “ENTIRE TREATMENT”. \n• \nWhen the subject of the question is a question about the occurrence of some activity or event related to the \ndisease milestone, RELMIDS acts like an evaluation interval, describing the period of time on which the \nquestion is focused. \n"
  },
  {
    "page": 50,
